picname,thisN,thisTrialN,thisRepN,slider.response,slider.rt,OneOrTwo,choiceLoR.keys,choiceLoR.rt,choiceLoR.duration,trials.thisRepN,trials.thisTrialN,trials.thisN,trials.thisIndex,trials_2.thisRepN,trials_2.thisTrialN,trials_2.thisN,trials_2.thisIndex,thisRow.t,notes,WelcomeScreen.started,WelcomeText.started,Continue.started,WelcomeScreen.stopped,Continue.keys,Continue.rt,Continue.duration,WelcomeScreen2.started,WelcomeInstructions2.started,key_resp_welcome2.started,WelcomeScreen2.stopped,key_resp_welcome2.keys,key_resp_welcome2.rt,key_resp_welcome2.duration,Begining_instructions.started,Instructions.started,Begining_instructions.stopped,consent.keys,consent.rt,consent.duration,Beginning_instructions_Rating.started,RatingDemo.started,RatingDemoConsent.started,slider_demo.started,AnchorLeftDemo.started,AnchorRightDemo.started,Beginning_instructions_Rating.stopped,RatingDemoConsent.keys,slider_demo.response,slider_demo.rt,Picture_Ratings.started,PictureViewing.started,slider.started,RatingText.started,AnchorNot.started,AnchorVery.started,Picture_Ratings.stopped,picturename,trials.slider.response,trials.slider.rt,Interim_Instructions.started,Instructions2.started,Interim_Instructions.stopped,consent2.keys,consent2.rt,consent2.duration,Interim_Instructions_pt2.started,Implicit_instructions_pt2.started,Interim_instructions_key.started,Interim_Instructions_pt2.stopped,Interim_instructions_key.keys,Interim_instructions_key.rt,Interim_instructions_key.duration,Choosing_Phase.started,Choosing_Phase.stopped,trials_2.choiceLoR.keys,trials_2.choiceLoR.rt,trials_2.choiceLoR.duration,Presenting_Phase.started,chosenfractals.started,EmotionalPictures.started,chosenfractals.stopped,EmotionalPictures.stopped,Presenting_Phase.stopped,chosenfractal,AdorDisad,PictureValence,count1,count2,End_Instruction.started,endText.started,End_Instruction.stopped,Prolific ID,session,date,expName,expVersion,psychopyVersion,frameRate,expStart,
,,,,,,,,,,,,,,,,,,,,0.04876020900155709,0.07926658399992448,0.07926658399992448,11.477780834000441,space,11.395448540999496,None,,,,,,,,,,,,,,,,,,,,,,,,,,,,,,,,,,,,,,,,,,,,,,,,,,,,,,,,,,,,,,,,,,test10_Sona,001,2026-01-15_16h29.57.712,SocialRL_SONA,,2025.1.1,119.82918349907406,2026-01-15 16h30.13.082843 -0500,
,,,,,,,,,,,,,,,,,,,,,,,,,,,11.478081917000964,11.505977042001177,11.505977042001177,12.063315167000837,space,0.5548065419989143,None,,,,,,,,,,,,,,,,,,,,,,,,,,,,,,,,,,,,,,,,,,,,,,,,,,,,,,,,,,,test10_Sona,001,2026-01-15_16h29.57.712,SocialRL_SONA,,2025.1.1,119.82918349907406,2026-01-15 16h30.13.082843 -0500,
,,,,,,,,,,,,,,,,,,,,,,,,,,,,,,,,,,12.063394000000699,12.089421750000838,12.713756417000695,space,0.6207491669993033,None,,,,,,,,,,,,,,,,,,,,,,,,,,,,,,,,,,,,,,,,,,,,,,,,,,,,,test10_Sona,001,2026-01-15_16h29.57.712,SocialRL_SONA,,2025.1.1,119.82918349907406,2026-01-15 16h30.13.082843 -0500,
,,,,,,,,,,,,,,,,,,,,,,,,,,,,,,,,,,,,,,,,12.715399125001568,12.76948533399991,12.76948533399991,12.76948533399991,12.76948533399991,12.76948533399991,19.32556033400033,None,4.52,6.596685833001175,,,,,,,,,,,,,,,,,,,,,,,,,,,,,,,,,,,,,,,,,,,test10_Sona,001,2026-01-15_16h29.57.712,SocialRL_SONA,,2025.1.1,119.82918349907406,2026-01-15 16h30.13.082843 -0500,
psychopy/Emotional_Pictures/group1/Neutral1/C3.png,0,0,0,5,2.2933082499985176,,,,,0,0,0,38,,,,,19.397789667000325,,,,,,,,,,,,,,,,,,,,,,,,,,,,,,,,19.371507834001022,19.397789667000325,19.397789667000325,19.397789667000325,19.397789667000325,19.397789667000325,21.677626209000664,psychopy/Emotional_Pictures/group1/Neutral1/C3.png,5,2.2933082499985176,,,,,,,,,,,,,,,,,,,,,,,,,,,,,,,,,test10_Sona,001,2026-01-15_16h29.57.712,SocialRL_SONA,,2025.1.1,119.82918349907406,2026-01-15 16h30.13.082843 -0500,
psychopy/Emotional_Pictures/group1/Positive1/A23.png,1,1,0,5,0.4960695839999971,,,,,0,1,1,60,,,,,21.737487334001344,,,,,,,,,,,,,,,,,,,,,,,,,,,,,,,,21.72484841700134,21.737487334001344,21.737487334001344,21.737487334001344,21.737487334001344,21.737487334001344,22.23434774999987,psychopy/Emotional_Pictures/group1/Positive1/A23.png,5,0.4960695839999971,,,,,,,,,,,,,,,,,,,,,,,,,,,,,,,,,test10_Sona,001,2026-01-15_16h29.57.712,SocialRL_SONA,,2025.1.1,119.82918349907406,2026-01-15 16h30.13.082843 -0500,
psychopy/Emotional_Pictures/group1/Positive1/A11.png,2,2,0,5,0.11203941599887912,,,,,0,2,2,47,,,,,22.28488479200132,,,,,,,,,,,,,,,,,,,,,,,,,,,,,,,,22.27033662500071,22.28488479200132,22.28488479200132,22.28488479200132,22.28488479200132,22.28488479200132,22.39533054200001,psychopy/Emotional_Pictures/group1/Positive1/A11.png,5,0.11203941599887912,,,,,,,,,,,,,,,,,,,,,,,,,,,,,,,,,test10_Sona,001,2026-01-15_16h29.57.712,SocialRL_SONA,,2025.1.1,119.82918349907406,2026-01-15 16h30.13.082843 -0500,
psychopy/Emotional_Pictures/group1/Positive1/A29.png,3,3,0,5,0.16016470799877425,,,,,0,3,3,66,,,,,22.447224917001222,,,,,,,,,,,,,,,,,,,,,,,,,,,,,,,,22.43455570900005,22.447224917001222,22.447224917001222,22.447224917001222,22.447224917001222,22.447224917001222,22.60784366700136,psychopy/Emotional_Pictures/group1/Positive1/A29.png,5,0.16016470799877425,,,,,,,,,,,,,,,,,,,,,,,,,,,,,,,,,test10_Sona,001,2026-01-15_16h29.57.712,SocialRL_SONA,,2025.1.1,119.82918349907406,2026-01-15 16h30.13.082843 -0500,
psychopy/Emotional_Pictures/group1/Neutral1/C1.png,4,4,0,5,0.20078754099995422,,,,,0,4,4,30,,,,,22.62621300000137,,,,,,,,,,,,,,,,,,,,,,,,,,,,,,,,22.613577042000543,22.62621300000137,22.62621300000137,22.62621300000137,22.62621300000137,22.62621300000137,22.82735841700014,psychopy/Emotional_Pictures/group1/Neutral1/C1.png,5,0.20078754099995422,,,,,,,,,,,,,,,,,,,,,,,,,,,,,,,,,test10_Sona,001,2026-01-15_16h29.57.712,SocialRL_SONA,,2025.1.1,119.82918349907406,2026-01-15 16h30.13.082843 -0500,
psychopy/Emotional_Pictures/group1/Negative1/D14.png,5,5,0,5,0.1870285420009168,,,,,0,5,5,5,,,,,22.846115084001212,,,,,,,,,,,,,,,,,,,,,,,,,,,,,,,,22.83305054199991,22.846115084001212,22.846115084001212,22.846115084001212,22.846115084001212,22.846115084001212,23.033272250000664,psychopy/Emotional_Pictures/group1/Negative1/D14.png,5,0.1870285420009168,,,,,,,,,,,,,,,,,,,,,,,,,,,,,,,,,test10_Sona,001,2026-01-15_16h29.57.712,SocialRL_SONA,,2025.1.1,119.82918349907406,2026-01-15 16h30.13.082843 -0500,
psychopy/Emotional_Pictures/group1/Negative1/D12.png,6,6,0,5,0.14615512499949546,,,,,0,6,6,3,,,,,23.051642375001393,,,,,,,,,,,,,,,,,,,,,,,,,,,,,,,,23.03911008400064,23.051642375001393,23.051642375001393,23.051642375001393,23.051642375001393,23.051642375001393,23.199433875000977,psychopy/Emotional_Pictures/group1/Negative1/D12.png,5,0.14615512499949546,,,,,,,,,,,,,,,,,,,,,,,,,,,,,,,,,test10_Sona,001,2026-01-15_16h29.57.712,SocialRL_SONA,,2025.1.1,119.82918349907406,2026-01-15 16h30.13.082843 -0500,
psychopy/Emotional_Pictures/group1/Negative1/D19.png,7,7,0,5,0.18410270899948955,,,,,0,7,7,10,,,,,23.218323917000816,,,,,,,,,,,,,,,,,,,,,,,,,,,,,,,,23.20467537500008,23.218323917000816,23.218323917000816,23.218323917000816,23.218323917000816,23.218323917000816,23.402263334000963,psychopy/Emotional_Pictures/group1/Negative1/D19.png,5,0.18410270899948955,,,,,,,,,,,,,,,,,,,,,,,,,,,,,,,,,test10_Sona,001,2026-01-15_16h29.57.712,SocialRL_SONA,,2025.1.1,119.82918349907406,2026-01-15 16h30.13.082843 -0500,
psychopy/Emotional_Pictures/group1/Negative1/D10.png,8,8,0,5,0.13694604200100002,,,,,0,8,8,1,,,,,23.421002084000065,,,,,,,,,,,,,,,,,,,,,,,,,,,,,,,,23.40747491700131,23.421002084000065,23.421002084000065,23.421002084000065,23.421002084000065,23.421002084000065,23.557480917001158,psychopy/Emotional_Pictures/group1/Negative1/D10.png,5,0.13694604200100002,,,,,,,,,,,,,,,,,,,,,,,,,,,,,,,,,test10_Sona,001,2026-01-15_16h29.57.712,SocialRL_SONA,,2025.1.1,119.82918349907406,2026-01-15 16h30.13.082843 -0500,
psychopy/Emotional_Pictures/group1/Positive1/A30.png,9,9,0,5,0.14689541599909717,,,,,0,9,9,68,,,,,23.60429891700005,,,,,,,,,,,,,,,,,,,,,,,,,,,,,,,,23.591650834001484,23.60429891700005,23.60429891700005,23.60429891700005,23.60429891700005,23.60429891700005,23.751667833999818,psychopy/Emotional_Pictures/group1/Positive1/A30.png,5,0.14689541599909717,,,,,,,,,,,,,,,,,,,,,,,,,,,,,,,,,test10_Sona,001,2026-01-15_16h29.57.712,SocialRL_SONA,,2025.1.1,119.82918349907406,2026-01-15 16h30.13.082843 -0500,
psychopy/Emotional_Pictures/group1/Neutral1/C6.png,10,10,0,5,0.13601670800017018,,,,,0,10,10,41,,,,,23.770436667000467,,,,,,,,,,,,,,,,,,,,,,,,,,,,,,,,23.757545542001026,23.770436667000467,23.770436667000467,23.770436667000467,23.770436667000467,23.770436667000467,23.90653308400033,psychopy/Emotional_Pictures/group1/Neutral1/C6.png,5,0.13601670800017018,,,,,,,,,,,,,,,,,,,,,,,,,,,,,,,,,test10_Sona,001,2026-01-15_16h29.57.712,SocialRL_SONA,,2025.1.1,119.82918349907406,2026-01-15 16h30.13.082843 -0500,
psychopy/Emotional_Pictures/group1/Positive1/A27.png,11,11,0,5,0.11294525000084832,,,,,0,11,11,64,,,,,23.953844834000847,,,,,,,,,,,,,,,,,,,,,,,,,,,,,,,,23.941248459001145,23.953844834000847,23.953844834000847,23.953844834000847,23.953844834000847,23.953844834000847,24.067886000000726,psychopy/Emotional_Pictures/group1/Positive1/A27.png,5,0.11294525000084832,,,,,,,,,,,,,,,,,,,,,,,,,,,,,,,,,test10_Sona,001,2026-01-15_16h29.57.712,SocialRL_SONA,,2025.1.1,119.82918349907406,2026-01-15 16h30.13.082843 -0500,
psychopy/Emotional_Pictures/group1/Positive1/A6.png,12,12,0,5,0.017712124999889056,,,,,0,12,12,71,,,,,24.234715084001436,,,,,,,,,,,,,,,,,,,,,,,,,,,,,,,,24.21858775000146,24.234715084001436,24.234715084001436,24.234715084001436,24.234715084001436,24.234715084001436,24.250031209001463,psychopy/Emotional_Pictures/group1/Positive1/A6.png,5,0.017712124999889056,,,,,,,,,,,,,,,,,,,,,,,,,,,,,,,,,test10_Sona,001,2026-01-15_16h29.57.712,SocialRL_SONA,,2025.1.1,119.82918349907406,2026-01-15 16h30.13.082843 -0500,
psychopy/Emotional_Pictures/group1/Negative1/D16.png,13,13,0,5,0.14697250000062922,,,,,0,13,13,7,,,,,24.270552916999804,,,,,,,,,,,,,,,,,,,,,,,,,,,,,,,,24.257696374999796,24.270552916999804,24.270552916999804,24.270552916999804,24.270552916999804,24.270552916999804,24.41853645900119,psychopy/Emotional_Pictures/group1/Negative1/D16.png,5,0.14697250000062922,,,,,,,,,,,,,,,,,,,,,,,,,,,,,,,,,test10_Sona,001,2026-01-15_16h29.57.712,SocialRL_SONA,,2025.1.1,119.82918349907406,2026-01-15 16h30.13.082843 -0500,
psychopy/Emotional_Pictures/group1/Neutral1/C4.png,14,14,0,5,0.19902741700025217,,,,,0,14,14,39,,,,,24.43728766700042,,,,,,,,,,,,,,,,,,,,,,,,,,,,,,,,24.423547875001532,24.43728766700042,24.43728766700042,24.43728766700042,24.43728766700042,24.43728766700042,24.636661792001178,psychopy/Emotional_Pictures/group1/Neutral1/C4.png,5,0.19902741700025217,,,,,,,,,,,,,,,,,,,,,,,,,,,,,,,,,test10_Sona,001,2026-01-15_16h29.57.712,SocialRL_SONA,,2025.1.1,119.82918349907406,2026-01-15 16h30.13.082843 -0500,
psychopy/Emotional_Pictures/group1/Neutral1/C9.png,15,15,0,5,0.13741204100006144,,,,,0,15,15,44,,,,,24.654853625001124,,,,,,,,,,,,,,,,,,,,,,,,,,,,,,,,24.64156345900119,24.654853625001124,24.654853625001124,24.654853625001124,24.654853625001124,24.654853625001124,24.79257216699989,psychopy/Emotional_Pictures/group1/Neutral1/C9.png,5,0.13741204100006144,,,,,,,,,,,,,,,,,,,,,,,,,,,,,,,,,test10_Sona,001,2026-01-15_16h29.57.712,SocialRL_SONA,,2025.1.1,119.82918349907406,2026-01-15 16h30.13.082843 -0500,
psychopy/Emotional_Pictures/group1/Negative1/D26.png,16,16,0,5,0.12582087500049965,,,,,0,16,16,18,,,,,24.83846320900011,,,,,,,,,,,,,,,,,,,,,,,,,,,,,,,,24.825931250001304,24.83846320900011,24.83846320900011,24.83846320900011,24.83846320900011,24.83846320900011,24.96507925000151,psychopy/Emotional_Pictures/group1/Negative1/D26.png,5,0.12582087500049965,,,,,,,,,,,,,,,,,,,,,,,,,,,,,,,,,test10_Sona,001,2026-01-15_16h29.57.712,SocialRL_SONA,,2025.1.1,119.82918349907406,2026-01-15 16h30.13.082843 -0500,
psychopy/Emotional_Pictures/group1/Positive1/A14.png,17,17,0,5,0.28207183300037286,,,,,0,17,17,50,,,,,25.0150563340012,,,,,,,,,,,,,,,,,,,,,,,,,,,,,,,,25.002274042000863,25.0150563340012,25.0150563340012,25.0150563340012,25.0150563340012,25.0150563340012,25.297544459001074,psychopy/Emotional_Pictures/group1/Positive1/A14.png,5,0.28207183300037286,,,,,,,,,,,,,,,,,,,,,,,,,,,,,,,,,test10_Sona,001,2026-01-15_16h29.57.712,SocialRL_SONA,,2025.1.1,119.82918349907406,2026-01-15 16h30.13.082843 -0500,
psychopy/Emotional_Pictures/group1/Negative1/D27.png,18,18,0,5,0.12433008299922221,,,,,0,18,18,19,,,,,25.347399709000456,,,,,,,,,,,,,,,,,,,,,,,,,,,,,,,,25.33482458400067,25.347399709000456,25.347399709000456,25.347399709000456,25.347399709000456,25.347399709000456,25.47270483400098,psychopy/Emotional_Pictures/group1/Negative1/D27.png,5,0.12433008299922221,,,,,,,,,,,,,,,,,,,,,,,,,,,,,,,,,test10_Sona,001,2026-01-15_16h29.57.712,SocialRL_SONA,,2025.1.1,119.82918349907406,2026-01-15 16h30.13.082843 -0500,
psychopy/Emotional_Pictures/group1/Negative1/D21.png,19,19,0,5,0.11183987500044168,,,,,0,19,19,13,,,,,25.522579709000638,,,,,,,,,,,,,,,,,,,,,,,,,,,,,,,,25.508249625001554,25.522579709000638,25.522579709000638,25.522579709000638,25.522579709000638,25.522579709000638,25.633958250000433,psychopy/Emotional_Pictures/group1/Negative1/D21.png,5,0.11183987500044168,,,,,,,,,,,,,,,,,,,,,,,,,,,,,,,,,test10_Sona,001,2026-01-15_16h29.57.712,SocialRL_SONA,,2025.1.1,119.82918349907406,2026-01-15 16h30.13.082843 -0500,
psychopy/Emotional_Pictures/group1/Positive1/A25.png,20,20,0,5,0.12899716699939745,,,,,0,20,20,62,,,,,25.68895695900028,,,,,,,,,,,,,,,,,,,,,,,,,,,,,,,,25.67583412500062,25.68895695900028,25.68895695900028,25.68895695900028,25.68895695900028,25.68895695900028,25.818456542001513,psychopy/Emotional_Pictures/group1/Positive1/A25.png,5,0.12899716699939745,,,,,,,,,,,,,,,,,,,,,,,,,,,,,,,,,test10_Sona,001,2026-01-15_16h29.57.712,SocialRL_SONA,,2025.1.1,119.82918349907406,2026-01-15 16h30.13.082843 -0500,
psychopy/Emotional_Pictures/group1/Positive1/A16.png,21,21,0,5,0.09629595799924573,,,,,0,21,21,52,,,,,25.86793475000013,,,,,,,,,,,,,,,,,,,,,,,,,,,,,,,,25.85522454200145,25.86793475000013,25.86793475000013,25.86793475000013,25.86793475000013,25.86793475000013,25.964930625001216,psychopy/Emotional_Pictures/group1/Positive1/A16.png,5,0.09629595799924573,,,,,,,,,,,,,,,,,,,,,,,,,,,,,,,,,test10_Sona,001,2026-01-15_16h29.57.712,SocialRL_SONA,,2025.1.1,119.82918349907406,2026-01-15 16h30.13.082843 -0500,
psychopy/Emotional_Pictures/group1/Negative1/D17.png,22,22,0,5,0.16073762499945587,,,,,0,22,22,8,,,,,25.98407808400043,,,,,,,,,,,,,,,,,,,,,,,,,,,,,,,,25.971269499999835,25.98407808400043,25.98407808400043,25.98407808400043,25.98407808400043,25.98407808400043,26.144899167000403,psychopy/Emotional_Pictures/group1/Negative1/D17.png,5,0.16073762499945587,,,,,,,,,,,,,,,,,,,,,,,,,,,,,,,,,test10_Sona,001,2026-01-15_16h29.57.712,SocialRL_SONA,,2025.1.1,119.82918349907406,2026-01-15 16h30.13.082843 -0500,
psychopy/Emotional_Pictures/group1/Negative1/D28.png,23,23,0,5,0.14033912500053702,,,,,0,23,23,20,,,,,26.193969625001046,,,,,,,,,,,,,,,,,,,,,,,,,,,,,,,,26.180624459000683,26.193969625001046,26.193969625001046,26.193969625001046,26.193969625001046,26.193969625001046,26.33431762500004,psychopy/Emotional_Pictures/group1/Negative1/D28.png,5,0.14033912500053702,,,,,,,,,,,,,,,,,,,,,,,,,,,,,,,,,test10_Sona,001,2026-01-15_16h29.57.712,SocialRL_SONA,,2025.1.1,119.82918349907406,2026-01-15 16h30.13.082843 -0500,
psychopy/Emotional_Pictures/group1/Negative1/D5.png,24,24,0,5,0.17518849999942177,,,,,0,24,24,25,,,,,26.353134167000462,,,,,,,,,,,,,,,,,,,,,,,,,,,,,,,,26.340183209000315,26.353134167000462,26.353134167000462,26.353134167000462,26.353134167000462,26.353134167000462,26.52823391700076,psychopy/Emotional_Pictures/group1/Negative1/D5.png,5,0.17518849999942177,,,,,,,,,,,,,,,,,,,,,,,,,,,,,,,,,test10_Sona,001,2026-01-15_16h29.57.712,SocialRL_SONA,,2025.1.1,119.82918349907406,2026-01-15 16h30.13.082843 -0500,
psychopy/Emotional_Pictures/group1/Positive1/A21.png,25,25,0,5,0.12209391700162087,,,,,0,25,25,58,,,,,26.576146959001562,,,,,,,,,,,,,,,,,,,,,,,,,,,,,,,,26.56355212500057,26.576146959001562,26.576146959001562,26.576146959001562,26.576146959001562,26.576146959001562,26.6987572500002,psychopy/Emotional_Pictures/group1/Positive1/A21.png,5,0.12209391700162087,,,,,,,,,,,,,,,,,,,,,,,,,,,,,,,,,test10_Sona,001,2026-01-15_16h29.57.712,SocialRL_SONA,,2025.1.1,119.82918349907406,2026-01-15 16h30.13.082843 -0500,
psychopy/Emotional_Pictures/group1/Positive1/A3.png,26,26,0,5,0.0750940409998293,,,,,0,26,26,67,,,,,26.958690250001382,,,,,,,,,,,,,,,,,,,,,,,,,,,,,,,,26.941820666999774,26.958690250001382,26.958690250001382,26.958690250001382,26.958690250001382,26.958690250001382,27.030638917000033,psychopy/Emotional_Pictures/group1/Positive1/A3.png,5,0.0750940409998293,,,,,,,,,,,,,,,,,,,,,,,,,,,,,,,,,test10_Sona,001,2026-01-15_16h29.57.712,SocialRL_SONA,,2025.1.1,119.82918349907406,2026-01-15 16h30.13.082843 -0500,
psychopy/Emotional_Pictures/group1/Neutral1/C2.png,27,27,0,5,0.1238709999997809,,,,,0,27,27,37,,,,,27.055711709001116,,,,,,,,,,,,,,,,,,,,,,,,,,,,,,,,27.042308666999816,27.055711709001116,27.055711709001116,27.055711709001116,27.055711709001116,27.055711709001116,27.179481500001202,psychopy/Emotional_Pictures/group1/Neutral1/C2.png,5,0.1238709999997809,,,,,,,,,,,,,,,,,,,,,,,,,,,,,,,,,test10_Sona,001,2026-01-15_16h29.57.712,SocialRL_SONA,,2025.1.1,119.82918349907406,2026-01-15 16h30.13.082843 -0500,
psychopy/Emotional_Pictures/group1/Negative1/D15.png,28,28,0,5,0.16084383399902435,,,,,0,28,28,6,,,,,27.197146334001445,,,,,,,,,,,,,,,,,,,,,,,,,,,,,,,,27.184477667000465,27.197146334001445,27.197146334001445,27.197146334001445,27.197146334001445,27.197146334001445,27.372902000000977,psychopy/Emotional_Pictures/group1/Negative1/D15.png,5,0.16084383399902435,,,,,,,,,,,,,,,,,,,,,,,,,,,,,,,,,test10_Sona,001,2026-01-15_16h29.57.712,SocialRL_SONA,,2025.1.1,119.82918349907406,2026-01-15 16h30.13.082843 -0500,
psychopy/Emotional_Pictures/group1/Positive1/A7.png,29,29,0,5,0.056550416999016306,,,,,0,29,29,72,,,,,27.49159037500067,,,,,,,,,,,,,,,,,,,,,,,,,,,,,,,,27.477223167001284,27.49159037500067,27.49159037500067,27.49159037500067,27.49159037500067,27.49159037500067,27.547323000000688,psychopy/Emotional_Pictures/group1/Positive1/A7.png,5,0.056550416999016306,,,,,,,,,,,,,,,,,,,,,,,,,,,,,,,,,test10_Sona,001,2026-01-15_16h29.57.712,SocialRL_SONA,,2025.1.1,119.82918349907406,2026-01-15 16h30.13.082843 -0500,
psychopy/Emotional_Pictures/group1/Neutral1/C12.png,30,30,0,5,0.15162574999885692,,,,,0,30,30,33,,,,,27.567462542001522,,,,,,,,,,,,,,,,,,,,,,,,,,,,,,,,27.554462042000523,27.567462542001522,27.567462542001522,27.567462542001522,27.567462542001522,27.567462542001522,27.719623875000252,psychopy/Emotional_Pictures/group1/Neutral1/C12.png,5,0.15162574999885692,,,,,,,,,,,,,,,,,,,,,,,,,,,,,,,,,test10_Sona,001,2026-01-15_16h29.57.712,SocialRL_SONA,,2025.1.1,119.82918349907406,2026-01-15 16h30.13.082843 -0500,
psychopy/Emotional_Pictures/group1/Neutral1/C8.png,31,31,0,5,0.13616012500096986,,,,,0,31,31,43,,,,,27.73713300000054,,,,,,,,,,,,,,,,,,,,,,,,,,,,,,,,27.7240090840005,27.73713300000054,27.73713300000054,27.73713300000054,27.73713300000054,27.73713300000054,27.87317833400084,psychopy/Emotional_Pictures/group1/Neutral1/C8.png,5,0.13616012500096986,,,,,,,,,,,,,,,,,,,,,,,,,,,,,,,,,test10_Sona,001,2026-01-15_16h29.57.712,SocialRL_SONA,,2025.1.1,119.82918349907406,2026-01-15 16h30.13.082843 -0500,
psychopy/Emotional_Pictures/group1/Positive1/A20.png,32,32,0,5,0.12332558300113305,,,,,0,32,32,57,,,,,27.92185150000114,,,,,,,,,,,,,,,,,,,,,,,,,,,,,,,,27.909037917001115,27.92185150000114,27.92185150000114,27.92185150000114,27.92185150000114,27.92185150000114,28.045230959000037,psychopy/Emotional_Pictures/group1/Positive1/A20.png,5,0.12332558300113305,,,,,,,,,,,,,,,,,,,,,,,,,,,,,,,,,test10_Sona,001,2026-01-15_16h29.57.712,SocialRL_SONA,,2025.1.1,119.82918349907406,2026-01-15 16h30.13.082843 -0500,
psychopy/Emotional_Pictures/group1/Negative1/D8.png,33,33,0,5,0.18430420799995773,,,,,0,33,33,28,,,,,28.063878709001074,,,,,,,,,,,,,,,,,,,,,,,,,,,,,,,,28.051223625001512,28.063878709001074,28.063878709001074,28.063878709001074,28.063878709001074,28.063878709001074,28.248788667000554,psychopy/Emotional_Pictures/group1/Negative1/D8.png,5,0.18430420799995773,,,,,,,,,,,,,,,,,,,,,,,,,,,,,,,,,test10_Sona,001,2026-01-15_16h29.57.712,SocialRL_SONA,,2025.1.1,119.82918349907406,2026-01-15 16h30.13.082843 -0500,
psychopy/Emotional_Pictures/group1/Neutral1/C11.png,34,34,0,5,0.140122208998946,,,,,0,34,34,32,,,,,28.26717700000154,,,,,,,,,,,,,,,,,,,,,,,,,,,,,,,,28.254535209000096,28.26717700000154,28.26717700000154,28.26717700000154,28.26717700000154,28.26717700000154,28.40842391700062,psychopy/Emotional_Pictures/group1/Neutral1/C11.png,5,0.140122208998946,,,,,,,,,,,,,,,,,,,,,,,,,,,,,,,,,test10_Sona,001,2026-01-15_16h29.57.712,SocialRL_SONA,,2025.1.1,119.82918349907406,2026-01-15 16h30.13.082843 -0500,
psychopy/Emotional_Pictures/group1/Positive1/A19.png,35,35,0,5,0.12066874999982247,,,,,0,35,35,55,,,,,28.45743458400102,,,,,,,,,,,,,,,,,,,,,,,,,,,,,,,,28.443333334000272,28.45743458400102,28.45743458400102,28.45743458400102,28.45743458400102,28.45743458400102,28.57735487500031,psychopy/Emotional_Pictures/group1/Positive1/A19.png,5,0.12066874999982247,,,,,,,,,,,,,,,,,,,,,,,,,,,,,,,,,test10_Sona,001,2026-01-15_16h29.57.712,SocialRL_SONA,,2025.1.1,119.82918349907406,2026-01-15 16h30.13.082843 -0500,
psychopy/Emotional_Pictures/group1/Positive1/A12.png,36,36,0,5,0.12422245800007659,,,,,0,36,36,48,,,,,28.625831459001347,,,,,,,,,,,,,,,,,,,,,,,,,,,,,,,,28.61180104200139,28.625831459001347,28.625831459001347,28.625831459001347,28.625831459001347,28.625831459001347,28.749260750000758,psychopy/Emotional_Pictures/group1/Positive1/A12.png,5,0.12422245800007659,,,,,,,,,,,,,,,,,,,,,,,,,,,,,,,,,test10_Sona,001,2026-01-15_16h29.57.712,SocialRL_SONA,,2025.1.1,119.82918349907406,2026-01-15 16h30.13.082843 -0500,
psychopy/Emotional_Pictures/group1/Positive1/A28.png,37,37,0,5,0.11880199999905017,,,,,0,37,37,65,,,,,28.805498292000266,,,,,,,,,,,,,,,,,,,,,,,,,,,,,,,,28.78731775000051,28.805498292000266,28.805498292000266,28.805498292000266,28.805498292000266,28.805498292000266,28.91960716700123,psychopy/Emotional_Pictures/group1/Positive1/A28.png,5,0.11880199999905017,,,,,,,,,,,,,,,,,,,,,,,,,,,,,,,,,test10_Sona,001,2026-01-15_16h29.57.712,SocialRL_SONA,,2025.1.1,119.82918349907406,2026-01-15 16h30.13.082843 -0500,
psychopy/Emotional_Pictures/group1/Positive1/A18.png,38,38,0,5,0.13737941699946532,,,,,0,38,38,54,,,,,28.968423875001463,,,,,,,,,,,,,,,,,,,,,,,,,,,,,,,,28.955132459001106,28.968423875001463,28.968423875001463,28.968423875001463,28.968423875001463,28.968423875001463,29.1058637920014,psychopy/Emotional_Pictures/group1/Positive1/A18.png,5,0.13737941699946532,,,,,,,,,,,,,,,,,,,,,,,,,,,,,,,,,test10_Sona,001,2026-01-15_16h29.57.712,SocialRL_SONA,,2025.1.1,119.82918349907406,2026-01-15 16h30.13.082843 -0500,
psychopy/Emotional_Pictures/group1/Negative1/D20.png,39,39,0,5,0.1504240000012942,,,,,0,39,39,12,,,,,29.124193375000687,,,,,,,,,,,,,,,,,,,,,,,,,,,,,,,,29.11139000000003,29.124193375000687,29.124193375000687,29.124193375000687,29.124193375000687,29.124193375000687,29.289443792000384,psychopy/Emotional_Pictures/group1/Negative1/D20.png,5,0.1504240000012942,,,,,,,,,,,,,,,,,,,,,,,,,,,,,,,,,test10_Sona,001,2026-01-15_16h29.57.712,SocialRL_SONA,,2025.1.1,119.82918349907406,2026-01-15 16h30.13.082843 -0500,
psychopy/Emotional_Pictures/group1/Negative1/D1.png,40,40,0,5,0.15932229200006987,,,,,0,40,40,0,,,,,29.30909200000133,,,,,,,,,,,,,,,,,,,,,,,,,,,,,,,,29.294398334001016,29.30909200000133,29.30909200000133,29.30909200000133,29.30909200000133,29.30909200000133,29.46718737500123,psychopy/Emotional_Pictures/group1/Negative1/D1.png,5,0.15932229200006987,,,,,,,,,,,,,,,,,,,,,,,,,,,,,,,,,test10_Sona,001,2026-01-15_16h29.57.712,SocialRL_SONA,,2025.1.1,119.82918349907406,2026-01-15 16h30.13.082843 -0500,
psychopy/Emotional_Pictures/group1/Positive1/A10.png,41,41,0,5,0.016173583000636427,,,,,0,41,41,46,,,,,29.617356124999787,,,,,,,,,,,,,,,,,,,,,,,,,,,,,,,,29.602447417000803,29.617356124999787,29.617356124999787,29.617356124999787,29.617356124999787,29.617356124999787,29.631487583999842,psychopy/Emotional_Pictures/group1/Positive1/A10.png,5,0.016173583000636427,,,,,,,,,,,,,,,,,,,,,,,,,,,,,,,,,test10_Sona,001,2026-01-15_16h29.57.712,SocialRL_SONA,,2025.1.1,119.82918349907406,2026-01-15 16h30.13.082843 -0500,
psychopy/Emotional_Pictures/group1/Positive1/A13.png,42,42,0,5,0.13428587499947753,,,,,0,42,42,49,,,,,29.682452834000287,,,,,,,,,,,,,,,,,,,,,,,,,,,,,,,,29.668824792001033,29.682452834000287,29.682452834000287,29.682452834000287,29.682452834000287,29.682452834000287,29.816761000000042,psychopy/Emotional_Pictures/group1/Positive1/A13.png,5,0.13428587499947753,,,,,,,,,,,,,,,,,,,,,,,,,,,,,,,,,test10_Sona,001,2026-01-15_16h29.57.712,SocialRL_SONA,,2025.1.1,119.82918349907406,2026-01-15 16h30.13.082843 -0500,
psychopy/Emotional_Pictures/group1/Negative1/D24.png,43,43,0,5,0.13934179100033361,,,,,0,43,43,16,,,,,29.86588991700046,,,,,,,,,,,,,,,,,,,,,,,,,,,,,,,,29.851566792000085,29.86588991700046,29.86588991700046,29.86588991700046,29.86588991700046,29.86588991700046,30.00578945900088,psychopy/Emotional_Pictures/group1/Negative1/D24.png,5,0.13934179100033361,,,,,,,,,,,,,,,,,,,,,,,,,,,,,,,,,test10_Sona,001,2026-01-15_16h29.57.712,SocialRL_SONA,,2025.1.1,119.82918349907406,2026-01-15 16h30.13.082843 -0500,
psychopy/Emotional_Pictures/group1/Neutral1/C14.png,44,44,0,5,0.1378844589999062,,,,,0,44,44,35,,,,,30.025950625000405,,,,,,,,,,,,,,,,,,,,,,,,,,,,,,,,30.01265233400045,30.025950625000405,30.025950625000405,30.025950625000405,30.025950625000405,30.025950625000405,30.164129374999902,psychopy/Emotional_Pictures/group1/Neutral1/C14.png,5,0.1378844589999062,,,,,,,,,,,,,,,,,,,,,,,,,,,,,,,,,test10_Sona,001,2026-01-15_16h29.57.712,SocialRL_SONA,,2025.1.1,119.82918349907406,2026-01-15 16h30.13.082843 -0500,
psychopy/Emotional_Pictures/group1/Negative1/D4.png,45,45,0,5,0.16030987499834737,,,,,0,45,45,24,,,,,30.18202370900144,,,,,,,,,,,,,,,,,,,,,,,,,,,,,,,,30.169215208999958,30.18202370900144,30.18202370900144,30.18202370900144,30.18202370900144,30.18202370900144,30.343115542000305,psychopy/Emotional_Pictures/group1/Negative1/D4.png,5,0.16030987499834737,,,,,,,,,,,,,,,,,,,,,,,,,,,,,,,,,test10_Sona,001,2026-01-15_16h29.57.712,SocialRL_SONA,,2025.1.1,119.82918349907406,2026-01-15 16h30.13.082843 -0500,
psychopy/Emotional_Pictures/group1/Negative1/D29.png,46,46,0,5,0.16801250000025902,,,,,0,46,46,21,,,,,30.389473541999905,,,,,,,,,,,,,,,,,,,,,,,,,,,,,,,,30.37681958400026,30.389473541999905,30.389473541999905,30.389473541999905,30.389473541999905,30.389473541999905,30.562990917000207,psychopy/Emotional_Pictures/group1/Negative1/D29.png,5,0.16801250000025902,,,,,,,,,,,,,,,,,,,,,,,,,,,,,,,,,test10_Sona,001,2026-01-15_16h29.57.712,SocialRL_SONA,,2025.1.1,119.82918349907406,2026-01-15 16h30.13.082843 -0500,
psychopy/Emotional_Pictures/group1/Negative1/D30.png,47,47,0,5,0.09041975000036473,,,,,0,47,47,23,,,,,30.626549542001158,,,,,,,,,,,,,,,,,,,,,,,,,,,,,,,,30.60754633400029,30.626549542001158,30.626549542001158,30.626549542001158,30.626549542001158,30.626549542001158,30.71506812500047,psychopy/Emotional_Pictures/group1/Negative1/D30.png,5,0.09041975000036473,,,,,,,,,,,,,,,,,,,,,,,,,,,,,,,,,test10_Sona,001,2026-01-15_16h29.57.712,SocialRL_SONA,,2025.1.1,119.82918349907406,2026-01-15 16h30.13.082843 -0500,
psychopy/Emotional_Pictures/group1/Positive1/A26.png,48,48,0,5,0.1669300409994321,,,,,0,48,48,63,,,,,30.78199266699994,,,,,,,,,,,,,,,,,,,,,,,,,,,,,,,,30.759846709001067,30.78199266699994,30.78199266699994,30.78199266699994,30.78199266699994,30.78199266699994,30.94088933400053,psychopy/Emotional_Pictures/group1/Positive1/A26.png,5,0.1669300409994321,,,,,,,,,,,,,,,,,,,,,,,,,,,,,,,,,test10_Sona,001,2026-01-15_16h29.57.712,SocialRL_SONA,,2025.1.1,119.82918349907406,2026-01-15 16h30.13.082843 -0500,
psychopy/Emotional_Pictures/group1/Negative1/D11.png,49,49,0,5,0.4563309160002973,,,,,0,49,49,2,,,,,30.961078834001455,,,,,,,,,,,,,,,,,,,,,,,,,,,,,,,,30.947001292001005,30.961078834001455,30.961078834001455,30.961078834001455,30.961078834001455,30.961078834001455,31.418522375000975,psychopy/Emotional_Pictures/group1/Negative1/D11.png,5,0.4563309160002973,,,,,,,,,,,,,,,,,,,,,,,,,,,,,,,,,test10_Sona,001,2026-01-15_16h29.57.712,SocialRL_SONA,,2025.1.1,119.82918349907406,2026-01-15 16h30.13.082843 -0500,
psychopy/Emotional_Pictures/group1/Neutral1/C15.png,50,50,0,5,0.18011524999928952,,,,,0,50,50,36,,,,,31.437547167000957,,,,,,,,,,,,,,,,,,,,,,,,,,,,,,,,31.423805042000822,31.437547167000957,31.437547167000957,31.437547167000957,31.437547167000957,31.437547167000957,31.616932917000668,psychopy/Emotional_Pictures/group1/Neutral1/C15.png,5,0.18011524999928952,,,,,,,,,,,,,,,,,,,,,,,,,,,,,,,,,test10_Sona,001,2026-01-15_16h29.57.712,SocialRL_SONA,,2025.1.1,119.82918349907406,2026-01-15 16h30.13.082843 -0500,
psychopy/Emotional_Pictures/group1/Positive1/A22.png,51,51,0,5,0.11251320900009887,,,,,0,51,51,59,,,,,31.667216667001412,,,,,,,,,,,,,,,,,,,,,,,,,,,,,,,,31.653753583999787,31.667216667001412,31.667216667001412,31.667216667001412,31.667216667001412,31.667216667001412,31.779436124999847,psychopy/Emotional_Pictures/group1/Positive1/A22.png,5,0.11251320900009887,,,,,,,,,,,,,,,,,,,,,,,,,,,,,,,,,test10_Sona,001,2026-01-15_16h29.57.712,SocialRL_SONA,,2025.1.1,119.82918349907406,2026-01-15 16h30.13.082843 -0500,
psychopy/Emotional_Pictures/group1/Positive1/A9.png,52,52,0,5,0.1571656249998341,,,,,0,52,52,74,,,,,31.953625292000652,,,,,,,,,,,,,,,,,,,,,,,,,,,,,,,,31.938661875001344,31.953625292000652,31.953625292000652,31.953625292000652,31.953625292000652,31.953625292000652,32.10983212500105,psychopy/Emotional_Pictures/group1/Positive1/A9.png,5,0.1571656249998341,,,,,,,,,,,,,,,,,,,,,,,,,,,,,,,,,test10_Sona,001,2026-01-15_16h29.57.712,SocialRL_SONA,,2025.1.1,119.82918349907406,2026-01-15 16h30.13.082843 -0500,
psychopy/Emotional_Pictures/group1/Negative1/D22.png,53,53,0,5,0.12964916700002505,,,,,0,53,53,14,,,,,32.16167425000094,,,,,,,,,,,,,,,,,,,,,,,,,,,,,,,,32.148695709000094,32.16167425000094,32.16167425000094,32.16167425000094,32.16167425000094,32.16167425000094,32.29144054200151,psychopy/Emotional_Pictures/group1/Negative1/D22.png,5,0.12964916700002505,,,,,,,,,,,,,,,,,,,,,,,,,,,,,,,,,test10_Sona,001,2026-01-15_16h29.57.712,SocialRL_SONA,,2025.1.1,119.82918349907406,2026-01-15 16h30.13.082843 -0500,
psychopy/Emotional_Pictures/group1/Negative1/D9.png,54,54,0,5,0.13698754200049734,,,,,0,54,54,29,,,,,32.30996416700145,,,,,,,,,,,,,,,,,,,,,,,,,,,,,,,,32.296935084001234,32.30996416700145,32.30996416700145,32.30996416700145,32.30996416700145,32.30996416700145,32.44779050000034,psychopy/Emotional_Pictures/group1/Negative1/D9.png,5,0.13698754200049734,,,,,,,,,,,,,,,,,,,,,,,,,,,,,,,,,test10_Sona,001,2026-01-15_16h29.57.712,SocialRL_SONA,,2025.1.1,119.82918349907406,2026-01-15 16h30.13.082843 -0500,
psychopy/Emotional_Pictures/group1/Negative1/D25.png,55,55,0,5,0.1431210419996205,,,,,0,55,55,17,,,,,32.496382500001346,,,,,,,,,,,,,,,,,,,,,,,,,,,,,,,,32.482953624999936,32.496382500001346,32.496382500001346,32.496382500001346,32.496382500001346,32.496382500001346,32.63963658400098,psychopy/Emotional_Pictures/group1/Negative1/D25.png,5,0.1431210419996205,,,,,,,,,,,,,,,,,,,,,,,,,,,,,,,,,test10_Sona,001,2026-01-15_16h29.57.712,SocialRL_SONA,,2025.1.1,119.82918349907406,2026-01-15 16h30.13.082843 -0500,
psychopy/Emotional_Pictures/group1/Positive1/A1.png,56,56,0,5,0.19363425000119605,,,,,0,56,56,45,,,,,32.80127404199993,,,,,,,,,,,,,,,,,,,,,,,,,,,,,,,,32.78764541700002,32.80127404199993,32.80127404199993,32.80127404199993,32.80127404199993,32.80127404199993,32.995936167000764,psychopy/Emotional_Pictures/group1/Positive1/A1.png,5,0.19363425000119605,,,,,,,,,,,,,,,,,,,,,,,,,,,,,,,,,test10_Sona,001,2026-01-15_16h29.57.712,SocialRL_SONA,,2025.1.1,119.82918349907406,2026-01-15 16h30.13.082843 -0500,
psychopy/Emotional_Pictures/group1/Positive1/A15.png,57,57,0,5,0.13184695899872168,,,,,0,57,57,51,,,,,33.04806425000061,,,,,,,,,,,,,,,,,,,,,,,,,,,,,,,,33.03471479200016,33.04806425000061,33.04806425000061,33.04806425000061,33.04806425000061,33.04806425000061,33.179994666999846,psychopy/Emotional_Pictures/group1/Positive1/A15.png,5,0.13184695899872168,,,,,,,,,,,,,,,,,,,,,,,,,,,,,,,,,test10_Sona,001,2026-01-15_16h29.57.712,SocialRL_SONA,,2025.1.1,119.82918349907406,2026-01-15 16h30.13.082843 -0500,
psychopy/Emotional_Pictures/group1/Neutral1/C5.png,58,58,0,5,0.17107649999888963,,,,,0,58,58,40,,,,,33.198833792001096,,,,,,,,,,,,,,,,,,,,,,,,,,,,,,,,33.18562208399999,33.198833792001096,33.198833792001096,33.198833792001096,33.198833792001096,33.198833792001096,33.3700035840011,psychopy/Emotional_Pictures/group1/Neutral1/C5.png,5,0.17107649999888963,,,,,,,,,,,,,,,,,,,,,,,,,,,,,,,,,test10_Sona,001,2026-01-15_16h29.57.712,SocialRL_SONA,,2025.1.1,119.82918349907406,2026-01-15 16h30.13.082843 -0500,
psychopy/Emotional_Pictures/group1/Negative1/D2.png,59,59,0,5,0.1536002089997055,,,,,0,59,59,11,,,,,33.38924425000005,,,,,,,,,,,,,,,,,,,,,,,,,,,,,,,,33.37503004200153,33.38924425000005,33.38924425000005,33.38924425000005,33.38924425000005,33.38924425000005,33.54382633400019,psychopy/Emotional_Pictures/group1/Negative1/D2.png,5,0.1536002089997055,,,,,,,,,,,,,,,,,,,,,,,,,,,,,,,,,test10_Sona,001,2026-01-15_16h29.57.712,SocialRL_SONA,,2025.1.1,119.82918349907406,2026-01-15 16h30.13.082843 -0500,
psychopy/Emotional_Pictures/group1/Positive1/A8.png,60,60,0,5,0.17667524999887974,,,,,0,60,60,73,,,,,33.705351542001154,,,,,,,,,,,,,,,,,,,,,,,,,,,,,,,,33.68935720900117,33.705351542001154,33.705351542001154,33.705351542001154,33.705351542001154,33.705351542001154,33.87960812500023,psychopy/Emotional_Pictures/group1/Positive1/A8.png,5,0.17667524999887974,,,,,,,,,,,,,,,,,,,,,,,,,,,,,,,,,test10_Sona,001,2026-01-15_16h29.57.712,SocialRL_SONA,,2025.1.1,119.82918349907406,2026-01-15 16h30.13.082843 -0500,
psychopy/Emotional_Pictures/group1/Positive1/A2.png,61,61,0,5,0.04383804099961708,,,,,0,61,61,56,,,,,34.00560033400143,,,,,,,,,,,,,,,,,,,,,,,,,,,,,,,,33.99114275000102,34.00560033400143,34.00560033400143,34.00560033400143,34.00560033400143,34.00560033400143,34.04829129200152,psychopy/Emotional_Pictures/group1/Positive1/A2.png,5,0.04383804099961708,,,,,,,,,,,,,,,,,,,,,,,,,,,,,,,,,test10_Sona,001,2026-01-15_16h29.57.712,SocialRL_SONA,,2025.1.1,119.82918349907406,2026-01-15 16h30.13.082843 -0500,
psychopy/Emotional_Pictures/group1/Negative1/D3.png,62,62,0,5,0.1500629170004686,,,,,0,62,62,22,,,,,34.06875916700119,,,,,,,,,,,,,,,,,,,,,,,,,,,,,,,,34.05576095900142,34.06875916700119,34.06875916700119,34.06875916700119,34.06875916700119,34.06875916700119,34.21902708400012,psychopy/Emotional_Pictures/group1/Negative1/D3.png,5,0.1500629170004686,,,,,,,,,,,,,,,,,,,,,,,,,,,,,,,,,test10_Sona,001,2026-01-15_16h29.57.712,SocialRL_SONA,,2025.1.1,119.82918349907406,2026-01-15 16h30.13.082843 -0500,
psychopy/Emotional_Pictures/group1/Neutral1/C10.png,63,63,0,5,0.15487287500036473,,,,,0,63,63,31,,,,,34.237456959001065,,,,,,,,,,,,,,,,,,,,,,,,,,,,,,,,34.22446329200102,34.237456959001065,34.237456959001065,34.237456959001065,34.237456959001065,34.237456959001065,34.393825459001164,psychopy/Emotional_Pictures/group1/Neutral1/C10.png,5,0.15487287500036473,,,,,,,,,,,,,,,,,,,,,,,,,,,,,,,,,test10_Sona,001,2026-01-15_16h29.57.712,SocialRL_SONA,,2025.1.1,119.82918349907406,2026-01-15 16h30.13.082843 -0500,
psychopy/Emotional_Pictures/group1/Negative1/D7.png,64,64,0,5,0.13701749999927415,,,,,0,64,64,27,,,,,34.41229437500078,,,,,,,,,,,,,,,,,,,,,,,,,,,,,,,,34.3988360000003,34.41229437500078,34.41229437500078,34.41229437500078,34.41229437500078,34.41229437500078,34.54900820900002,psychopy/Emotional_Pictures/group1/Negative1/D7.png,5,0.13701749999927415,,,,,,,,,,,,,,,,,,,,,,,,,,,,,,,,,test10_Sona,001,2026-01-15_16h29.57.712,SocialRL_SONA,,2025.1.1,119.82918349907406,2026-01-15 16h30.13.082843 -0500,
psychopy/Emotional_Pictures/group1/Neutral1/C7.png,65,65,0,5,0.14200216599965643,,,,,0,65,65,42,,,,,34.567208834001576,,,,,,,,,,,,,,,,,,,,,,,,,,,,,,,,34.55407325000124,34.567208834001576,34.567208834001576,34.567208834001576,34.567208834001576,34.567208834001576,34.71035337500143,psychopy/Emotional_Pictures/group1/Neutral1/C7.png,5,0.14200216599965643,,,,,,,,,,,,,,,,,,,,,,,,,,,,,,,,,test10_Sona,001,2026-01-15_16h29.57.712,SocialRL_SONA,,2025.1.1,119.82918349907406,2026-01-15 16h30.13.082843 -0500,
psychopy/Emotional_Pictures/group1/Negative1/D18.png,66,66,0,5,0.18281991699950595,,,,,0,66,66,9,,,,,34.727996334000636,,,,,,,,,,,,,,,,,,,,,,,,,,,,,,,,34.714942833999885,34.727996334000636,34.727996334000636,34.727996334000636,34.727996334000636,34.727996334000636,34.911681375000626,psychopy/Emotional_Pictures/group1/Negative1/D18.png,5,0.18281991699950595,,,,,,,,,,,,,,,,,,,,,,,,,,,,,,,,,test10_Sona,001,2026-01-15_16h29.57.712,SocialRL_SONA,,2025.1.1,119.82918349907406,2026-01-15 16h30.13.082843 -0500,
psychopy/Emotional_Pictures/group1/Positive1/A17.png,67,67,0,5,0.10452841699952842,,,,,0,67,67,53,,,,,34.970351209,,,,,,,,,,,,,,,,,,,,,,,,,,,,,,,,34.95479929200155,34.970351209,34.970351209,34.970351209,34.970351209,34.970351209,35.072721500000625,psychopy/Emotional_Pictures/group1/Positive1/A17.png,5,0.10452841699952842,,,,,,,,,,,,,,,,,,,,,,,,,,,,,,,,,test10_Sona,001,2026-01-15_16h29.57.712,SocialRL_SONA,,2025.1.1,119.82918349907406,2026-01-15 16h30.13.082843 -0500,
psychopy/Emotional_Pictures/group1/Positive1/A4.png,68,68,0,5,0.23210179200032144,,,,,0,68,68,69,,,,,35.24117466700045,,,,,,,,,,,,,,,,,,,,,,,,,,,,,,,,35.22683170900018,35.24117466700045,35.24117466700045,35.24117466700045,35.24117466700045,35.24117466700045,35.47495379200154,psychopy/Emotional_Pictures/group1/Positive1/A4.png,5,0.23210179200032144,,,,,,,,,,,,,,,,,,,,,,,,,,,,,,,,,test10_Sona,001,2026-01-15_16h29.57.712,SocialRL_SONA,,2025.1.1,119.82918349907406,2026-01-15 16h30.13.082843 -0500,
psychopy/Emotional_Pictures/group1/Negative1/D13.png,69,69,0,5,0.11562920800133725,,,,,0,69,69,4,,,,,35.49968650000119,,,,,,,,,,,,,,,,,,,,,,,,,,,,,,,,35.48414525000044,35.49968650000119,35.49968650000119,35.49968650000119,35.49968650000119,35.49968650000119,35.61307083400061,psychopy/Emotional_Pictures/group1/Negative1/D13.png,5,0.11562920800133725,,,,,,,,,,,,,,,,,,,,,,,,,,,,,,,,,test10_Sona,001,2026-01-15_16h29.57.712,SocialRL_SONA,,2025.1.1,119.82918349907406,2026-01-15 16h30.13.082843 -0500,
psychopy/Emotional_Pictures/group1/Positive1/A5.png,70,70,0,5,0.15996274999997695,,,,,0,70,70,70,,,,,35.80005537500074,,,,,,,,,,,,,,,,,,,,,,,,,,,,,,,,35.786164541999824,35.80005537500074,35.80005537500074,35.80005537500074,35.80005537500074,35.80005537500074,35.95995062500151,psychopy/Emotional_Pictures/group1/Positive1/A5.png,5,0.15996274999997695,,,,,,,,,,,,,,,,,,,,,,,,,,,,,,,,,test10_Sona,001,2026-01-15_16h29.57.712,SocialRL_SONA,,2025.1.1,119.82918349907406,2026-01-15 16h30.13.082843 -0500,
psychopy/Emotional_Pictures/group1/Positive1/A24.png,71,71,0,5,0.15056920800088847,,,,,0,71,71,61,,,,,36.00878266700056,,,,,,,,,,,,,,,,,,,,,,,,,,,,,,,,35.99628612500055,36.00878266700056,36.00878266700056,36.00878266700056,36.00878266700056,36.00878266700056,36.16026383400094,psychopy/Emotional_Pictures/group1/Positive1/A24.png,5,0.15056920800088847,,,,,,,,,,,,,,,,,,,,,,,,,,,,,,,,,test10_Sona,001,2026-01-15_16h29.57.712,SocialRL_SONA,,2025.1.1,119.82918349907406,2026-01-15 16h30.13.082843 -0500,
psychopy/Emotional_Pictures/group1/Negative1/D6.png,72,72,0,5,0.1690679999992426,,,,,0,72,72,26,,,,,36.17873700000018,,,,,,,,,,,,,,,,,,,,,,,,,,,,,,,,36.166071458999795,36.17873700000018,36.17873700000018,36.17873700000018,36.17873700000018,36.17873700000018,36.34850212499987,psychopy/Emotional_Pictures/group1/Negative1/D6.png,5,0.1690679999992426,,,,,,,,,,,,,,,,,,,,,,,,,,,,,,,,,test10_Sona,001,2026-01-15_16h29.57.712,SocialRL_SONA,,2025.1.1,119.82918349907406,2026-01-15 16h30.13.082843 -0500,
psychopy/Emotional_Pictures/group1/Neutral1/C13.png,73,73,0,5,0.18034529099895735,,,,,0,73,73,34,,,,,36.36667708400091,,,,,,,,,,,,,,,,,,,,,,,,,,,,,,,,36.35355670900026,36.36667708400091,36.36667708400091,36.36667708400091,36.36667708400091,36.36667708400091,36.54856550000113,psychopy/Emotional_Pictures/group1/Neutral1/C13.png,5,0.18034529099895735,,,,,,,,,,,,,,,,,,,,,,,,,,,,,,,,,test10_Sona,001,2026-01-15_16h29.57.712,SocialRL_SONA,,2025.1.1,119.82918349907406,2026-01-15 16h30.13.082843 -0500,
psychopy/Emotional_Pictures/group1/Negative1/D23.png,74,74,0,5,0.1110118330016121,,,,,0,74,74,15,,,,,36.59597433400086,,,,,,,,,,,,,,,,,,,,,,,,,,,,,,,,36.583050000001094,36.59597433400086,36.59597433400086,36.59597433400086,36.59597433400086,36.59597433400086,36.707227292001335,psychopy/Emotional_Pictures/group1/Negative1/D23.png,5,0.1110118330016121,,,,,,,,,,,,,,,,,,,,,,,,,,,,,,,,,test10_Sona,001,2026-01-15_16h29.57.712,SocialRL_SONA,,2025.1.1,119.82918349907406,2026-01-15 16h30.13.082843 -0500,
,,,,,,,,,,,,,,,,,,,,,,,,,,,,,,,,,,,,,,,,,,,,,,,,,,,,,,,,,,,,36.707376500000464,36.71500412500063,37.678773667001224,space,0.931919790999018,None,,,,,,,,,,,,,,,,,,,,,,,,,,,test10_Sona,001,2026-01-15_16h29.57.712,SocialRL_SONA,,2025.1.1,119.82918349907406,2026-01-15 16h30.13.082843 -0500,
,,,,,,,,,,,,,,,,,,,,,,,,,,,,,,,,,,,,,,,,,,,,,,,,,,,,,,,,,,,,,,,,,,37.67886441700102,37.68900974999997,37.68900974999997,41.37441287500042,space,3.6805134169990197,None,,,,,,,,,,,,,,,,,,,,test10_Sona,001,2026-01-15_16h29.57.712,SocialRL_SONA,,2025.1.1,119.82918349907406,2026-01-15 16h30.13.082843 -0500,
,0,0,0,,,1,m,0.658851042000606,None,,,,,0,0,0,7,41.42747891700128,,,,,,,,,,,,,,,,,,,,,,,,,,,,,,,,,,,,,,,psychopy/Emotional_Pictures/group1/Negative1/D11.png,,,,,,,,,,,,,,,,41.418878125001356,44.04129870900033,m,0.658851042000606,None,44.062584084000264,44.07201016700128,48.03964158400049,48.06216229200072,50.03980941700138,50.02364016700085,31,disadvantageous,-1,1,0,,,,test10_Sona,001,2026-01-15_16h29.57.712,SocialRL_SONA,,2025.1.1,119.82918349907406,2026-01-15 16h30.13.082843 -0500,
,1,1,0,,,2,m,0.7265667499996198,None,,,,,0,1,1,45,50.03980941700138,,,,,,,,,,,,,,,,,,,,,,,,,,,,,,,,,,,,,,,psychopy/Emotional_Pictures/group2/Neutral2/NeutralTime13.png,,,,,,,,,,,,,,,,50.03384450000158,52.76995800000077,m,0.7265667499996198,None,52.834724875001484,52.84463166700152,56.76772204200097,56.83969262500068,58.77575225000146,58.75709716700112,18,advantageous,0,1,1,,,,test10_Sona,001,2026-01-15_16h29.57.712,SocialRL_SONA,,2025.1.1,119.82918349907406,2026-01-15 16h30.13.082843 -0500,
,2,2,0,,,2,m,0.7935945829995035,None,,,,,0,2,2,70,58.77575225000146,,,,,,,,,,,,,,,,,,,,,,,,,,,,,,,,,,,,,,,psychopy/Emotional_Pictures/group2/Neutral2/NeutralTime15.png,,,,,,,,,,,,,,,,58.76995554200039,61.56672512500154,m,0.7935945829995035,None,61.61969495900121,61.63086412499979,65.56441245899987,65.62295720900147,67.57151825000074,67.55732662500122,18,advantageous,0,1,2,,,,test10_Sona,001,2026-01-15_16h29.57.712,SocialRL_SONA,,2025.1.1,119.82918349907406,2026-01-15 16h30.13.082843 -0500,
,3,3,0,,,1,m,0.5499754170014057,None,,,,,0,3,3,18,67.57151825000074,,,,,,,,,,,,,,,,,,,,,,,,,,,,,,,,,,,,,,,psychopy/Emotional_Pictures/group1/Negative1/D7.png,,,,,,,,,,,,,,,,67.5658720420015,70.12566916700052,m,0.5499754170014057,None,70.14429716700033,70.15433495900106,74.12291816700053,74.145401709,76.12203795900132,76.1074620420004,31,disadvantageous,-1,2,2,,,,test10_Sona,001,2026-01-15_16h29.57.712,SocialRL_SONA,,2025.1.1,119.82918349907406,2026-01-15 16h30.13.082843 -0500,
,4,4,0,,,1,m,0.40911083399987547,None,,,,,0,4,4,31,76.12203795900132,,,,,,,,,,,,,,,,,,,,,,,,,,,,,,,,,,,,,,,psychopy/Emotional_Pictures/group1/Negative1/D15.png,,,,,,,,,,,,,,,,76.116371084001,78.54263600000013,m,0.40911083399987547,None,78.55551474999993,78.56627945900073,82.54343074999997,82.5623842920013,84.5445024590008,84.53174058400145,31,disadvantageous,-1,3,2,,,,test10_Sona,001,2026-01-15_16h29.57.712,SocialRL_SONA,,2025.1.1,119.82918349907406,2026-01-15 16h30.13.082843 -0500,
,5,5,0,,,1,z,0.2748086660012632,None,,,,,0,5,5,23,84.5445024590008,,,,,,,,,,,,,,,,,,,,,,,,,,,,,,,,,,,,,,,psychopy/Emotional_Pictures/group1/Neutral1/C15.png,,,,,,,,,,,,,,,,84.5393675840005,86.82508800000141,z,0.2748086660012632,None,86.83943070900023,86.8495162500003,90.82313687500027,90.84556562500075,92.82325820900041,92.80773616700026,31,disadvantageous,0,4,2,,,,test10_Sona,001,2026-01-15_16h29.57.712,SocialRL_SONA,,2025.1.1,119.82918349907406,2026-01-15 16h30.13.082843 -0500,
,6,6,0,,,2,z,0.9450626249999914,None,,,,,0,6,6,69,92.82325820900041,,,,,,,,,,,,,,,,,,,,,,,,,,,,,,,,,,,,,,,psychopy/Emotional_Pictures/group2/Positive2/PosTime11.png,,,,,,,,,,,,,,,,92.81741570900158,95.77582400000028,z,0.9450626249999914,None,95.82585070900132,95.8345025840008,99.77359366700148,99.82964691699999,101.77241758400123,101.75789166700088,18,advantageous,1,4,3,,,,test10_Sona,001,2026-01-15_16h29.57.712,SocialRL_SONA,,2025.1.1,119.82918349907406,2026-01-15 16h30.13.082843 -0500,
,7,7,0,,,2,z,1.1942607090004458,None,,,,,0,7,7,66,101.77241758400123,,,,,,,,,,,,,,,,,,,,,,,,,,,,,,,,,,,,,,,psychopy/Emotional_Pictures/group2/Negative2/NegativeTime12.png,,,,,,,,,,,,,,,,101.76651537500038,104.9757947500002,z,1.1942607090004458,None,105.02498812500016,105.0330983340009,108.97333891700146,109.02981,110.9734487500009,110.9598088340008,14,disadvantageous,-1,4,4,,,,test10_Sona,001,2026-01-15_16h29.57.712,SocialRL_SONA,,2025.1.1,119.82918349907406,2026-01-15 16h30.13.082843 -0500,
,8,8,0,,,1,z,1.3634934170004271,None,,,,,0,8,8,16,110.9734487500009,,,,,,,,,,,,,,,,,,,,,,,,,,,,,,,,,,,,,,,psychopy/Emotional_Pictures/group1/Negative1/D20.png,,,,,,,,,,,,,,,,110.96556370899998,114.34408495900061,z,1.3634934170004271,None,114.36461595900073,114.38003387500066,118.34035370899983,118.37374408400137,120.33819725000103,120.32423429200026,31,disadvantageous,-1,5,4,,,,test10_Sona,001,2026-01-15_16h29.57.712,SocialRL_SONA,,2025.1.1,119.82918349907406,2026-01-15 16h30.13.082843 -0500,
,9,9,0,,,2,z,0.4468785000008211,None,,,,,0,9,9,55,120.33819725000103,,,,,,,,,,,,,,,,,,,,,,,,,,,,,,,,,,,,,,,psychopy/Emotional_Pictures/group2/Negative2/NegativeTime19.png,,,,,,,,,,,,,,,,120.33239658400089,122.79259270900002,z,0.4468785000008211,None,122.85988712500148,122.86761404200115,126.79051600000093,126.86384270900089,128.78863120900132,128.77475162500014,14,disadvantageous,-1,5,5,,,,test10_Sona,001,2026-01-15_16h29.57.712,SocialRL_SONA,,2025.1.1,119.82918349907406,2026-01-15 16h30.13.082843 -0500,
,10,10,0,,,2,m,1.1774784999997792,None,,,,,0,10,10,51,128.78863120900132,,,,,,,,,,,,,,,,,,,,,,,,,,,,,,,,,,,,,,,psychopy/Emotional_Pictures/group2/Negative2/NegativeTime28.png,,,,,,,,,,,,,,,,128.78290658400147,131.97576087500056,m,1.1774784999997792,None,132.01984616700065,132.0280562500011,135.9737487500006,136.02420904200153,137.9699878749998,137.95783350000056,14,disadvantageous,-1,5,6,,,,test10_Sona,001,2026-01-15_16h29.57.712,SocialRL_SONA,,2025.1.1,119.82918349907406,2026-01-15 16h30.13.082843 -0500,
,11,11,0,,,1,m,0.5340367919998243,None,,,,,0,11,11,35,137.9699878749998,,,,,,,,,,,,,,,,,,,,,,,,,,,,,,,,,,,,,,,psychopy/Emotional_Pictures/group1/Positive1/A13.png,,,,,,,,,,,,,,,,137.96499258400036,140.52224125000066,m,0.5340367919998243,None,140.58988387499994,140.59578624999995,144.5162730000011,144.5908282090004,146.51765879200138,146.50829970900122,27,advantageous,1,6,6,,,,test10_Sona,001,2026-01-15_16h29.57.712,SocialRL_SONA,,2025.1.1,119.82918349907406,2026-01-15 16h30.13.082843 -0500,
,12,12,0,,,1,m,0.9938235829995392,None,,,,,0,12,12,0,146.51765879200138,,,,,,,,,,,,,,,,,,,,,,,,,,,,,,,,,,,,,,,psychopy/Emotional_Pictures/group1/Negative1/D2.png,,,,,,,,,,,,,,,,146.51317904200005,149.5169157090004,m,0.9938235829995392,None,149.52412587500112,149.5311523750006,153.51598600000034,153.5240115000015,155.5294979170012,155.50826304200018,31,disadvantageous,-1,7,6,,,,test10_Sona,001,2026-01-15_16h29.57.712,SocialRL_SONA,,2025.1.1,119.82918349907406,2026-01-15 16h30.13.082843 -0500,
,13,13,0,,,2,m,1.1362452920002397,None,,,,,0,13,13,49,155.5294979170012,,,,,,,,,,,,,,,,,,,,,,,,,,,,,,,,,,,,,,,psychopy/Emotional_Pictures/group2/Neutral2/NeutralTime2.png,,,,,,,,,,,,,,,,155.52415308400123,158.65973541700077,m,1.1362452920002397,None,158.7121575000001,158.72105229200133,162.65746991700144,162.71417954200115,164.6535443749999,164.64178716700007,18,advantageous,0,7,7,,,,test10_Sona,001,2026-01-15_16h29.57.712,SocialRL_SONA,,2025.1.1,119.82918349907406,2026-01-15 16h30.13.082843 -0500,
,14,14,0,,,2,m,0.8863475419984752,None,,,,,0,14,14,46,164.6535443749999,,,,,,,,,,,,,,,,,,,,,,,,,,,,,,,,,,,,,,,psychopy/Emotional_Pictures/group2/Positive2/PosTime10.png,,,,,,,,,,,,,,,,164.6481017920014,167.54932091699993,m,0.8863475419984752,None,167.60663970899986,167.6147388340014,171.55274354200083,171.60809970900118,173.55244158400092,173.54186320900044,18,advantageous,1,7,8,,,,test10_Sona,001,2026-01-15_16h29.57.712,SocialRL_SONA,,2025.1.1,119.82918349907406,2026-01-15 16h30.13.082843 -0500,
,15,15,0,,,1,None,,,,,,,0,15,15,8,173.55244158400092,,,,,,,,,,,,,,,,,,,,,,,,,,,,,,,,,,,,,,,psychopy/greyimage.jpg,,,,,,,,,,,,,,,,173.54828341699977,177.54196349999984,None,,,177.58396516700122,177.5899331670007,181.54894908400092,181.58122016700145,183.55455962500127,183.54198304200145,999,advantageous,0,8,8,,,,test10_Sona,001,2026-01-15_16h29.57.712,SocialRL_SONA,,2025.1.1,119.82918349907406,2026-01-15 16h30.13.082843 -0500,
,16,16,0,,,2,m,0.34892095800023526,None,,,,,0,16,16,74,183.55455962500127,,,,,,,,,,,,,,,,,,,,,,,,,,,,,,,,,,,,,,,psychopy/Emotional_Pictures/group2/Positive2/PosTime30.png,,,,,,,,,,,,,,,,183.5502315419999,185.90144320900072,m,0.34892095800023526,None,185.9335002500011,185.94067125000038,189.89954920899982,189.93084508399988,191.90873004200148,191.8922127090009,18,advantageous,1,8,9,,,,test10_Sona,001,2026-01-15_16h29.57.712,SocialRL_SONA,,2025.1.1,119.82918349907406,2026-01-15 16h30.13.082843 -0500,
,17,17,0,,,1,m,0.6271154160003789,None,,,,,0,17,17,17,191.90873004200148,,,,,,,,,,,,,,,,,,,,,,,,,,,,,,,,,,,,,,,psychopy/Emotional_Pictures/group1/Positive1/A27.png,,,,,,,,,,,,,,,,191.9029231250006,194.5334278340015,m,0.6271154160003789,None,194.5767421670007,194.58389116699982,198.5323093750012,198.58133650000127,200.54012491700087,200.52577991700127,27,advantageous,1,9,9,,,,test10_Sona,001,2026-01-15_16h29.57.712,SocialRL_SONA,,2025.1.1,119.82918349907406,2026-01-15 16h30.13.082843 -0500,
,18,18,0,,,1,m,0.7426015830005781,None,,,,,0,18,18,37,200.54012491700087,,,,,,,,,,,,,,,,,,,,,,,,,,,,,,,,,,,,,,,psychopy/Emotional_Pictures/group1/Neutral1/C12.png,,,,,,,,,,,,,,,,200.53421008400073,203.29051116700066,m,0.7426015830005781,None,203.30475529200157,203.31507104200136,207.28169733400136,207.30910875000154,209.28499716700026,209.26653741700102,27,advantageous,0,10,9,,,,test10_Sona,001,2026-01-15_16h29.57.712,SocialRL_SONA,,2025.1.1,119.82918349907406,2026-01-15 16h30.13.082843 -0500,
,19,19,0,,,1,m,0.4589886670000851,None,,,,,0,19,19,28,209.28499716700026,,,,,,,,,,,,,,,,,,,,,,,,,,,,,,,,,,,,,,,psychopy/Emotional_Pictures/group1/Negative1/D22.png,,,,,,,,,,,,,,,,209.27952858400022,211.7463930419999,m,0.4589886670000851,None,211.8243926670002,211.8347488340005,215.75850870900103,215.8314748749999,217.78553220899994,217.74274275000062,27,advantageous,-1,11,9,,,,test10_Sona,001,2026-01-15_16h29.57.712,SocialRL_SONA,,2025.1.1,119.82918349907406,2026-01-15 16h30.13.082843 -0500,
,20,20,0,,,1,m,1.7084088749998045,None,,,,,0,20,20,9,217.78553220899994,,,,,,,,,,,,,,,,,,,,,,,,,,,,,,,,,,,,,,,psychopy/Emotional_Pictures/group1/Negative1/D14.png,,,,,,,,,,,,,,,,217.77918291700007,221.46169904199996,m,1.7084088749998045,None,221.47954449999997,221.4877370840004,225.45829800000138,225.48116825000034,227.45177200000035,227.44251183400047,31,disadvantageous,-1,12,9,,,,test10_Sona,001,2026-01-15_16h29.57.712,SocialRL_SONA,,2025.1.1,119.82918349907406,2026-01-15 16h30.13.082843 -0500,
,21,21,0,,,1,m,0.8400429169996642,None,,,,,0,21,21,3,227.45177200000035,,,,,,,,,,,,,,,,,,,,,,,,,,,,,,,,,,,,,,,psychopy/Emotional_Pictures/group1/Positive1/A15.png,,,,,,,,,,,,,,,,227.44723400000112,230.30128387500008,m,0.8400429169996642,None,230.37413916700098,230.38351912500002,234.3055767090009,234.3847466670013,236.3415007500007,236.29615700000068,27,advantageous,1,13,9,,,,test10_Sona,001,2026-01-15_16h29.57.712,SocialRL_SONA,,2025.1.1,119.82918349907406,2026-01-15 16h30.13.082843 -0500,
,22,22,0,,,2,None,,,,,,,0,22,22,52,236.3415007500007,,,,,,,,,,,,,,,,,,,,,,,,,,,,,,,,,,,,,,,psychopy/greyimage.jpg,,,,,,,,,,,,,,,,236.33682995900017,240.29205000000002,None,,,240.3272661250012,240.333933584001,244.29997700000058,244.33162008399995,246.3035275000002,246.28437124999982,999,advantageous,0,13,10,,,,test10_Sona,001,2026-01-15_16h29.57.712,SocialRL_SONA,,2025.1.1,119.82918349907406,2026-01-15 16h30.13.082843 -0500,
,23,23,0,,,1,z,0.579982374998508,None,,,,,0,23,23,4,246.3035275000002,,,,,,,,,,,,,,,,,,,,,,,,,,,,,,,,,,,,,,,psychopy/Emotional_Pictures/group1/Positive1/A2.png,,,,,,,,,,,,,,,,246.29802012500113,248.94852716700007,z,0.579982374998508,None,249.06664587500018,249.30292675000055,252.9508043750011,253.29836437500126,254.9573264999999,254.94274529200084,27,advantageous,1,14,10,,,,test10_Sona,001,2026-01-15_16h29.57.712,SocialRL_SONA,,2025.1.1,119.82918349907406,2026-01-15 16h30.13.082843 -0500,
,24,24,0,,,2,z,1.6762644169994019,None,,,,,0,24,24,75,254.9573264999999,,,,,,,,,,,,,,,,,,,,,,,,,,,,,,,,,,,,,,,psychopy/Emotional_Pictures/group2/Negative2/NegativeTime25.png,,,,,,,,,,,,,,,,254.95157604199994,258.6272035840011,z,1.6762644169994019,None,258.7039238340003,258.7151709589998,262.6251139590004,262.7091059590002,264.62500524999996,264.61045995899985,14,disadvantageous,-1,14,11,,,,test10_Sona,001,2026-01-15_16h29.57.712,SocialRL_SONA,,2025.1.1,119.82918349907406,2026-01-15 16h30.13.082843 -0500,
,25,25,0,,,1,z,0.6151388340003905,None,,,,,0,25,25,1,264.62500524999996,,,,,,,,,,,,,,,,,,,,,,,,,,,,,,,,,,,,,,,psychopy/Emotional_Pictures/group1/Positive1/A9.png,,,,,,,,,,,,,,,,264.6195597920014,267.24412741700144,z,0.6151388340003905,None,267.445189,267.45290575000035,271.24116708400106,271.44926750000013,273.2423498750013,273.2263275000005,31,disadvantageous,1,15,11,,,,test10_Sona,001,2026-01-15_16h29.57.712,SocialRL_SONA,,2025.1.1,119.82918349907406,2026-01-15 16h30.13.082843 -0500,
,26,26,0,,,2,z,0.4941049999997631,None,,,,,0,26,26,67,273.2423498750013,,,,,,,,,,,,,,,,,,,,,,,,,,,,,,,,,,,,,,,psychopy/Emotional_Pictures/group2/Negative2/NegativeTime1.png,,,,,,,,,,,,,,,,273.23664937500143,275.744389417001,z,0.4941049999997631,None,275.8040925840014,275.8139664999999,279.7421129590002,279.8089932920011,281.74044162500104,281.726623292001,14,disadvantageous,-1,16,12,,,,test10_Sona,001,2026-01-15_16h29.57.712,SocialRL_SONA,,2025.1.1,119.82918349907406,2026-01-15 16h30.13.082843 -0500,
,27,27,0,,,1,z,1.2824566250001226,None,,,,,0,27,27,14,281.74044162500104,,,,,,,,,,,,,,,,,,,,,,,,,,,,,,,,,,,,,,,psychopy/Emotional_Pictures/group1/Neutral1/C9.png,,,,,,,,,,,,,,,,281.7353717500009,285.02897070900144,z,1.2824566250001226,None,285.0462386670006,285.05569766700137,289.0256966670004,289.04869808400144,291.0251831250007,291.01023200000054,27,disadvantageous,0,17,12,,,,test10_Sona,001,2026-01-15_16h29.57.712,SocialRL_SONA,,2025.1.1,119.82918349907406,2026-01-15 16h30.13.082843 -0500,
,28,28,0,,,2,m,0.7042173749996437,None,,,,,0,28,28,53,291.0251831250007,,,,,,,,,,,,,,,,,,,,,,,,,,,,,,,,,,,,,,,psychopy/Emotional_Pictures/group2/Positive2/PosTime20.png,,,,,,,,,,,,,,,,291.01942104200134,293.7337392090012,m,0.7042173749996437,None,293.7877646670004,293.7969283750008,297.7338799170011,297.79243141700135,299.7421265000012,299.7268592090004,18,advantageous,1,17,13,,,,test10_Sona,001,2026-01-15_16h29.57.712,SocialRL_SONA,,2025.1.1,119.82918349907406,2026-01-15 16h30.13.082843 -0500,
,29,29,0,,,2,m,1.1439118750004127,None,,,,,0,29,29,72,299.7421265000012,,,,,,,,,,,,,,,,,,,,,,,,,,,,,,,,,,,,,,,psychopy/Emotional_Pictures/group2/Neutral2/NeutralTime3.png,,,,,,,,,,,,,,,,299.73635900000045,302.89428333400065,m,1.1439118750004127,None,302.928662667,302.9344644590001,306.89233683400016,306.9332291669998,308.89077562500097,308.87688187500135,14,disadvantageous,0,17,14,,,,test10_Sona,001,2026-01-15_16h29.57.712,SocialRL_SONA,,2025.1.1,119.82918349907406,2026-01-15 16h30.13.082843 -0500,
,30,30,0,,,1,z,1.2623441670002649,None,,,,,0,30,30,36,308.89077562500097,,,,,,,,,,,,,,,,,,,,,,,,,,,,,,,,,,,,,,,psychopy/Emotional_Pictures/group1/Negative1/D6.png,,,,,,,,,,,,,,,,308.8857761670006,312.1611709170011,z,1.2623441670002649,None,312.1780401249998,312.18739800000003,316.15918895899995,316.1819540000015,318.1565450420003,318.14337083400096,27,disadvantageous,-1,18,14,,,,test10_Sona,001,2026-01-15_16h29.57.712,SocialRL_SONA,,2025.1.1,119.82918349907406,2026-01-15 16h30.13.082843 -0500,
,31,31,0,,,1,z,0.890224250000756,None,,,,,0,31,31,5,318.1565450420003,,,,,,,,,,,,,,,,,,,,,,,,,,,,,,,,,,,,,,,psychopy/Emotional_Pictures/group1/Positive1/A20.png,,,,,,,,,,,,,,,,318.1509511250006,321.0516931250004,z,0.890224250000756,None,321.1195751250016,321.12689208400116,325.0537515420001,325.11607358400033,327.0561562920011,327.0434361250009,31,advantageous,1,19,14,,,,test10_Sona,001,2026-01-15_16h29.57.712,SocialRL_SONA,,2025.1.1,119.82918349907406,2026-01-15 16h30.13.082843 -0500,
,32,32,0,,,1,z,0.3391346660009731,None,,,,,0,32,32,6,327.0561562920011,,,,,,,,,,,,,,,,,,,,,,,,,,,,,,,,,,,,,,,psychopy/Emotional_Pictures/group1/Negative1/D1.png,,,,,,,,,,,,,,,,327.0508708340003,329.39468333400146,z,0.3391346660009731,None,329.4085002920001,329.41849716700017,333.3929357500001,333.4157355839998,335.38895820900143,335.3768943750001,27,disadvantageous,-1,20,14,,,,test10_Sona,001,2026-01-15_16h29.57.712,SocialRL_SONA,,2025.1.1,119.82918349907406,2026-01-15 16h30.13.082843 -0500,
,33,33,0,,,1,m,1.6121193340004538,None,,,,,0,33,33,33,335.38895820900143,,,,,,,,,,,,,,,,,,,,,,,,,,,,,,,,,,,,,,,psychopy/Emotional_Pictures/group1/Neutral1/C8.png,,,,,,,,,,,,,,,,335.383398209,339.01145287500003,m,1.6121193340004538,None,339.02462087500135,339.03426825000133,343.0096910840002,343.02610941700004,345.0069672919999,344.99393025000063,31,advantageous,0,21,14,,,,test10_Sona,001,2026-01-15_16h29.57.712,SocialRL_SONA,,2025.1.1,119.82918349907406,2026-01-15 16h30.13.082843 -0500,
,34,34,0,,,1,None,,,,,,,0,34,34,10,345.0069672919999,,,,,,,,,,,,,,,,,,,,,,,,,,,,,,,,,,,,,,,psychopy/greyimage.jpg,,,,,,,,,,,,,,,,345.00137175000054,349.00042345900147,None,,,349.0333380840002,349.0391457090009,353.00955950000025,353.0326770420015,355.009145375001,354.9938335420011,999,advantageous,0,22,14,,,,test10_Sona,001,2026-01-15_16h29.57.712,SocialRL_SONA,,2025.1.1,119.82918349907406,2026-01-15 16h30.13.082843 -0500,
,35,35,0,,,2,m,0.9844315419995837,None,,,,,0,35,35,54,355.009145375001,,,,,,,,,,,,,,,,,,,,,,,,,,,,,,,,,,,,,,,psychopy/Emotional_Pictures/group2/Negative2/NegativeTime8.png,,,,,,,,,,,,,,,,355.00348158400084,357.9982374170013,m,0.9844315419995837,None,358.05750675000127,358.067138542001,361.99296583400064,362.0598907090007,363.99093079200065,363.9780431250001,14,disadvantageous,-1,22,15,,,,test10_Sona,001,2026-01-15_16h29.57.712,SocialRL_SONA,,2025.1.1,119.82918349907406,2026-01-15 16h30.13.082843 -0500,
,36,36,0,,,2,None,,,,,,,0,36,36,65,363.99093079200065,,,,,,,,,,,,,,,,,,,,,,,,,,,,,,,,,,,,,,,psychopy/greyimage.jpg,,,,,,,,,,,,,,,,363.98589979200005,367.98374966700067,None,,,368.01619179200134,368.0221409170008,371.99297720899995,372.016585667001,373.99291087500023,373.9779161250008,999,disadvantageous,0,22,16,,,,test10_Sona,001,2026-01-15_16h29.57.712,SocialRL_SONA,,2025.1.1,119.82918349907406,2026-01-15 16h30.13.082843 -0500,
,37,37,0,,,2,m,0.39636820899977465,None,,,,,0,37,37,59,373.99291087500023,,,,,,,,,,,,,,,,,,,,,,,,,,,,,,,,,,,,,,,psychopy/Emotional_Pictures/group2/Positive2/PosTime25.png,,,,,,,,,,,,,,,,373.98724462500104,376.3959146670004,m,0.39636820899977465,None,376.44558141700145,376.4538916250003,380.39313895899977,380.4501374170013,382.3866584590014,382.37739362499997,14,disadvantageous,1,22,17,,,,test10_Sona,001,2026-01-15_16h29.57.712,SocialRL_SONA,,2025.1.1,119.82918349907406,2026-01-15 16h30.13.082843 -0500,
,38,38,0,,,1,m,1.5085893329996907,None,,,,,0,38,38,38,382.3866584590014,,,,,,,,,,,,,,,,,,,,,,,,,,,,,,,,,,,,,,,psychopy/Emotional_Pictures/group1/Positive1/A3.png,,,,,,,,,,,,,,,,382.3823092500006,385.9119567500002,m,1.5085893329996907,None,386.1965673750001,386.20532379200085,389.90986016700117,390.20031833400026,391.911759042001,391.89434095900106,31,advantageous,1,23,17,,,,test10_Sona,001,2026-01-15_16h29.57.712,SocialRL_SONA,,2025.1.1,119.82918349907406,2026-01-15 16h30.13.082843 -0500,
,39,39,0,,,1,m,1.8301922909995483,None,,,,,0,39,39,12,391.911759042001,,,,,,,,,,,,,,,,,,,,,,,,,,,,,,,,,,,,,,,psychopy/Emotional_Pictures/group1/Neutral1/C11.png,,,,,,,,,,,,,,,,391.90648950000104,395.74524462500085,m,1.8301922909995483,None,395.75955745900137,395.76724758400087,399.74344345900136,399.76053554200007,401.7420125000008,401.7278962920009,27,disadvantageous,0,24,17,,,,test10_Sona,001,2026-01-15_16h29.57.712,SocialRL_SONA,,2025.1.1,119.82918349907406,2026-01-15 16h30.13.082843 -0500,
,40,40,0,,,1,None,,,,,,,0,40,40,2,401.7420125000008,,,,,,,,,,,,,,,,,,,,,,,,,,,,,,,,,,,,,,,psychopy/greyimage.jpg,,,,,,,,,,,,,,,,401.73614970900053,405.7298917090011,None,,,405.76156212500064,405.76992229200005,409.74304366700017,409.7669366250011,411.74600954200105,411.72798791700006,999,disadvantageous,0,25,17,,,,test10_Sona,001,2026-01-15_16h29.57.712,SocialRL_SONA,,2025.1.1,119.82918349907406,2026-01-15 16h30.13.082843 -0500,
,41,41,0,,,2,m,1.2036010829997394,None,,,,,0,41,41,42,411.74600954200105,,,,,,,,,,,,,,,,,,,,,,,,,,,,,,,,,,,,,,,psychopy/Emotional_Pictures/group2/Negative2/NegativeTime4.png,,,,,,,,,,,,,,,,411.74070091700014,414.953184209,m,1.2036010829997394,None,415.0161725420003,415.0244085840004,418.95256537500063,419.0170995839999,420.96035287500126,420.94578529200044,14,disadvantageous,-1,25,18,,,,test10_Sona,001,2026-01-15_16h29.57.712,SocialRL_SONA,,2025.1.1,119.82918349907406,2026-01-15 16h30.13.082843 -0500,
,42,42,0,,,2,None,,,,,,,0,42,42,77,420.96035287500126,,,,,,,,,,,,,,,,,,,,,,,,,,,,,,,,,,,,,,,psychopy/greyimage.jpg,,,,,,,,,,,,,,,,420.9545006670014,424.94444333400133,None,,,424.97779520900076,424.9836030840015,428.95237754200025,428.983804417001,430.9597243340013,430.9448047090009,999,disadvantageous,0,25,19,,,,test10_Sona,001,2026-01-15_16h29.57.712,SocialRL_SONA,,2025.1.1,119.82918349907406,2026-01-15 16h30.13.082843 -0500,
,43,43,0,,,2,z,0.553464292001081,None,,,,,0,43,43,48,430.9597243340013,,,,,,,,,,,,,,,,,,,,,,,,,,,,,,,,,,,,,,,psychopy/Emotional_Pictures/group2/Negative2/NegativeTime11.png,,,,,,,,,,,,,,,,430.95390212500024,433.51316441700146,z,0.553464292001081,None,433.5626973750004,433.5707843750006,437.5107842090001,437.5673136250007,439.5087412920002,439.49508304200026,14,disadvantageous,-1,25,20,,,,test10_Sona,001,2026-01-15_16h29.57.712,SocialRL_SONA,,2025.1.1,119.82918349907406,2026-01-15 16h30.13.082843 -0500,
,44,44,0,,,1,m,1.2831678750007995,None,,,,,0,44,44,39,439.5087412920002,,,,,,,,,,,,,,,,,,,,,,,,,,,,,,,,,,,,,,,psychopy/Emotional_Pictures/group1/Negative1/D25.png,,,,,,,,,,,,,,,,439.503092459001,442.7967034170015,m,1.2831678750007995,None,442.8476571250012,442.8548700420015,446.793989709,446.85034562500005,448.79380470900105,448.7788652920008,27,disadvantageous,-1,26,21,,,,test10_Sona,001,2026-01-15_16h29.57.712,SocialRL_SONA,,2025.1.1,119.82918349907406,2026-01-15 16h30.13.082843 -0500,
,45,45,0,,,2,m,1.5291812909999862,None,,,,,0,45,45,68,448.79380470900105,,,,,,,,,,,,,,,,,,,,,,,,,,,,,,,,,,,,,,,psychopy/Emotional_Pictures/group2/Negative2/NegativeTime29.png,,,,,,,,,,,,,,,,448.7881169170014,452.3299396670009,m,1.5291812909999862,None,452.3841466670001,452.3922885000011,456.32768316700094,456.38427383400085,458.32635712500087,458.31189916699986,18,disadvantageous,-1,26,22,,,,test10_Sona,001,2026-01-15_16h29.57.712,SocialRL_SONA,,2025.1.1,119.82918349907406,2026-01-15 16h30.13.082843 -0500,
,46,46,0,,,1,m,0.3194018750000396,None,,,,,0,46,46,20,458.32635712500087,,,,,,,,,,,,,,,,,,,,,,,,,,,,,,,,,,,,,,,psychopy/Emotional_Pictures/group1/Positive1/A28.png,,,,,,,,,,,,,,,,458.3205076250015,460.65352729200094,m,0.3194018750000396,None,460.72009591700044,460.7276577090015,464.65235845900133,464.71766666700023,466.65962229199977,466.645280875,31,advantageous,1,27,22,,,,test10_Sona,001,2026-01-15_16h29.57.712,SocialRL_SONA,,2025.1.1,119.82918349907406,2026-01-15 16h30.13.082843 -0500,
,47,47,0,,,1,m,1.9159523339985753,None,,,,,0,47,47,26,466.65962229199977,,,,,,,,,,,,,,,,,,,,,,,,,,,,,,,,,,,,,,,psychopy/Emotional_Pictures/group1/Positive1/A23.png,,,,,,,,,,,,,,,,466.65404295900044,470.5778649590011,m,1.9159523339985753,None,470.6264994590001,470.63561208400097,474.56957841700023,474.63429641699986,476.57664158400075,476.56176512500133,27,disadvantageous,1,28,22,,,,test10_Sona,001,2026-01-15_16h29.57.712,SocialRL_SONA,,2025.1.1,119.82918349907406,2026-01-15 16h30.13.082843 -0500,
,48,48,0,,,2,None,,,,,,,0,48,48,61,476.57664158400075,,,,,,,,,,,,,,,,,,,,,,,,,,,,,,,,,,,,,,,psychopy/greyimage.jpg,,,,,,,,,,,,,,,,476.57086045899996,480.5617752920007,None,,,480.6104332499999,480.6161295840011,484.56910479200087,484.6111675000011,486.5770099170004,486.56217050000123,999,disadvantageous,0,28,23,,,,test10_Sona,001,2026-01-15_16h29.57.712,SocialRL_SONA,,2025.1.1,119.82918349907406,2026-01-15 16h30.13.082843 -0500,
,49,49,0,,,1,m,1.6177590830011468,None,,,,,0,49,49,25,486.5770099170004,,,,,,,,,,,,,,,,,,,,,,,,,,,,,,,,,,,,,,,psychopy/Emotional_Pictures/group1/Neutral1/C3.png,,,,,,,,,,,,,,,,486.57118416699996,490.1972546670004,m,1.6177590830011468,None,490.2209824170004,490.23050858399984,494.19460979200085,494.2282400840013,496.19049704200006,496.17893633400126,31,advantageous,0,29,23,,,,test10_Sona,001,2026-01-15_16h29.57.712,SocialRL_SONA,,2025.1.1,119.82918349907406,2026-01-15 16h30.13.082843 -0500,
,50,50,0,,,1,m,0.8628703329995915,None,,,,,0,50,50,13,496.19049704200006,,,,,,,,,,,,,,,,,,,,,,,,,,,,,,,,,,,,,,,psychopy/Emotional_Pictures/group1/Neutral1/C1.png,,,,,,,,,,,,,,,,496.1856421250013,499.0631820840008,m,0.8628703329995915,None,499.0760262920012,499.0858906250014,503.0611853340015,503.08459216700066,505.0639205839998,505.0459434170007,27,disadvantageous,0,30,23,,,,test10_Sona,001,2026-01-15_16h29.57.712,SocialRL_SONA,,2025.1.1,119.82918349907406,2026-01-15 16h30.13.082843 -0500,
,51,51,0,,,2,z,1.534339750000072,None,,,,,0,51,51,64,505.0639205839998,,,,,,,,,,,,,,,,,,,,,,,,,,,,,,,,,,,,,,,psychopy/Emotional_Pictures/group2/Negative2/NegativeTime7.png,,,,,,,,,,,,,,,,505.058129209001,508.6074835840009,z,1.534339750000072,None,508.6711945420011,508.6834632500013,512.6034615000008,512.6783007920003,514.6085012500007,514.5955242920008,14,advantageous,-1,30,24,,,,test10_Sona,001,2026-01-15_16h29.57.712,SocialRL_SONA,,2025.1.1,119.82918349907406,2026-01-15 16h30.13.082843 -0500,
,52,52,0,,,2,m,0.8440119169990794,None,,,,,0,52,52,44,514.6085012500007,,,,,,,,,,,,,,,,,,,,,,,,,,,,,,,,,,,,,,,psychopy/Emotional_Pictures/group2/Negative2/NegativeTime5.png,,,,,,,,,,,,,,,,514.6030181250007,517.4540897920015,m,0.8440119169990794,None,517.5053739169998,517.5134347500007,521.4566135000005,521.5118020000009,523.4560347920014,523.4456159170004,18,disadvantageous,-1,30,25,,,,test10_Sona,001,2026-01-15_16h29.57.712,SocialRL_SONA,,2025.1.1,119.82918349907406,2026-01-15 16h30.13.082843 -0500,
,53,53,0,,,1,m,0.4764521670003887,None,,,,,0,53,53,24,523.4560347920014,,,,,,,,,,,,,,,,,,,,,,,,,,,,,,,,,,,,,,,psychopy/Emotional_Pictures/group1/Positive1/A17.png,,,,,,,,,,,,,,,,523.4519030420015,525.937482542,m,0.4764521670003887,None,526.0077900000015,526.0208777920016,529.9364264169999,530.0180197919999,531.9395389170004,531.9204207920011,31,advantageous,1,31,25,,,,test10_Sona,001,2026-01-15_16h29.57.712,SocialRL_SONA,,2025.1.1,119.82918349907406,2026-01-15 16h30.13.082843 -0500,
,54,54,0,,,2,None,,,,,,,0,54,54,62,531.9395389170004,,,,,,,,,,,,,,,,,,,,,,,,,,,,,,,,,,,,,,,psychopy/greyimage.jpg,,,,,,,,,,,,,,,,531.9340419170003,535.9290513340002,None,,,535.9690270840001,535.9752559590015,539.9361455840008,539.9683385839999,541.9430540419999,541.9291782090004,999,advantageous,0,31,26,,,,test10_Sona,001,2026-01-15_16h29.57.712,SocialRL_SONA,,2025.1.1,119.82918349907406,2026-01-15 16h30.13.082843 -0500,
,55,55,0,,,2,m,0.4511834169989015,None,,,,,0,55,55,76,541.9430540419999,,,,,,,,,,,,,,,,,,,,,,,,,,,,,,,,,,,,,,,psychopy/Emotional_Pictures/group2/Negative2/NegativeTime27.png,,,,,,,,,,,,,,,,541.9378772090004,544.397220709001,m,0.4511834169989015,None,544.4595961250016,544.4674675000006,548.3950687920005,548.4621729999999,550.3886085000013,550.3793538340014,18,disadvantageous,-1,31,27,,,,test10_Sona,001,2026-01-15_16h29.57.712,SocialRL_SONA,,2025.1.1,119.82918349907406,2026-01-15 16h30.13.082843 -0500,
,56,56,0,,,2,m,0.9502379589994234,None,,,,,0,56,56,79,550.3886085000013,,,,,,,,,,,,,,,,,,,,,,,,,,,,,,,,,,,,,,,psychopy/Emotional_Pictures/group2/Negative2/NegativeTime9.png,,,,,,,,,,,,,,,,550.3842055420009,553.3482985840001,m,0.9502379589994234,None,553.4010845840003,553.4094757500006,557.3451723340004,557.4018535000014,559.3445222090013,559.3295290840015,18,disadvantageous,-1,31,28,,,,test10_Sona,001,2026-01-15_16h29.57.712,SocialRL_SONA,,2025.1.1,119.82918349907406,2026-01-15 16h30.13.082843 -0500,
,57,57,0,,,1,m,1.4546026249990973,None,,,,,0,57,57,21,559.3445222090013,,,,,,,,,,,,,,,,,,,,,,,,,,,,,,,,,,,,,,,psychopy/Emotional_Pictures/group1/Negative1/D18.png,,,,,,,,,,,,,,,,559.3389207090004,562.806665125001,m,1.4546026249990973,None,562.8231664590003,562.8346110000002,566.8030004170014,566.8291606250004,568.7972922500012,568.7869810000011,27,disadvantageous,-1,32,28,,,,test10_Sona,001,2026-01-15_16h29.57.712,SocialRL_SONA,,2025.1.1,119.82918349907406,2026-01-15 16h30.13.082843 -0500,
,58,58,0,,,2,m,0.7199155830003292,None,,,,,0,58,58,50,568.7972922500012,,,,,,,,,,,,,,,,,,,,,,,,,,,,,,,,,,,,,,,psychopy/Emotional_Pictures/group2/Positive2/PosTime9.png,,,,,,,,,,,,,,,,568.792431834001,571.5309323750007,m,0.7199155830003292,None,571.5909838750013,571.601150542001,575.5285862500004,575.5957681670006,577.5252633750006,577.5127872920002,18,disadvantageous,1,32,29,,,,test10_Sona,001,2026-01-15_16h29.57.712,SocialRL_SONA,,2025.1.1,119.82918349907406,2026-01-15 16h30.13.082843 -0500,
,59,59,0,,,2,m,1.2534029580001516,None,,,,,0,59,59,63,577.5252633750006,,,,,,,,,,,,,,,,,,,,,,,,,,,,,,,,,,,,,,,psychopy/Emotional_Pictures/group2/Negative2/NegativeTime6.png,,,,,,,,,,,,,,,,577.520213834001,580.7877115420015,m,1.2534029580001516,None,580.853221292,580.8616836670008,584.7860152090016,584.8506487920004,586.7827151670008,586.7695468340007,18,disadvantageous,-1,32,30,,,,test10_Sona,001,2026-01-15_16h29.57.712,SocialRL_SONA,,2025.1.1,119.82918349907406,2026-01-15 16h30.13.082843 -0500,
,60,60,0,,,1,m,1.3803912500006845,None,,,,,0,60,60,15,586.7827151670008,,,,,,,,,,,,,,,,,,,,,,,,,,,,,,,,,,,,,,,psychopy/Emotional_Pictures/group1/Negative1/D13.png,,,,,,,,,,,,,,,,586.7776572920011,590.1717869590011,m,1.3803912500006845,None,590.1901365000012,590.201505209001,594.1721270840007,594.1959838750008,596.1838567089999,596.1632795840014,27,disadvantageous,-1,33,30,,,,test10_Sona,001,2026-01-15_16h29.57.712,SocialRL_SONA,,2025.1.1,119.82918349907406,2026-01-15 16h30.13.082843 -0500,
,61,61,0,,,1,z,1.237160832999507,None,,,,,0,61,61,34,596.1838567089999,,,,,,,,,,,,,,,,,,,,,,,,,,,,,,,,,,,,,,,psychopy/Emotional_Pictures/group1/Positive1/A24.png,,,,,,,,,,,,,,,,596.1780073340014,599.4158593749999,z,1.237160832999507,None,599.4858917090005,599.4956012500006,603.4123070840014,603.4852513340011,605.4101516669998,605.3968286670006,27,disadvantageous,1,34,30,,,,test10_Sona,001,2026-01-15_16h29.57.712,SocialRL_SONA,,2025.1.1,119.82918349907406,2026-01-15 16h30.13.082843 -0500,
,62,62,0,,,1,m,1.2785362500017072,None,,,,,0,62,62,19,605.4101516669998,,,,,,,,,,,,,,,,,,,,,,,,,,,,,,,,,,,,,,,psychopy/Emotional_Pictures/group1/Negative1/D19.png,,,,,,,,,,,,,,,,605.4045792920006,608.6964107500007,m,1.2785362500017072,None,608.7082023750008,608.715499625001,612.6875180840016,612.7128055000012,614.694043042,614.6802887089998,27,disadvantageous,-1,35,30,,,,test10_Sona,001,2026-01-15_16h29.57.712,SocialRL_SONA,,2025.1.1,119.82918349907406,2026-01-15 16h30.13.082843 -0500,
,63,63,0,,,1,m,0.3027838330017403,None,,,,,0,63,63,11,614.694043042,,,,,,,,,,,,,,,,,,,,,,,,,,,,,,,,,,,,,,,psychopy/Emotional_Pictures/group1/Negative1/D16.png,,,,,,,,,,,,,,,,614.6883559170001,616.9977934590006,m,0.3027838330017403,None,617.0128624590016,617.022919250001,620.9958854590004,621.018991125,622.9925368340009,622.9804040420004,27,disadvantageous,-1,36,30,,,,test10_Sona,001,2026-01-15_16h29.57.712,SocialRL_SONA,,2025.1.1,119.82918349907406,2026-01-15 16h30.13.082843 -0500,
,64,64,0,,,2,m,1.0224151660004281,None,,,,,0,64,64,41,622.9925368340009,,,,,,,,,,,,,,,,,,,,,,,,,,,,,,,,,,,,,,,psychopy/Emotional_Pictures/group2/Positive2/PosTime14.png,,,,,,,,,,,,,,,,622.9886161250015,626.0217446670013,m,1.0224151660004281,None,626.0807435840015,626.0896840000005,630.0223528750012,630.0857772920008,632.0287830420002,632.013604875001,14,advantageous,1,36,31,,,,test10_Sona,001,2026-01-15_16h29.57.712,SocialRL_SONA,,2025.1.1,119.82918349907406,2026-01-15 16h30.13.082843 -0500,
,65,65,0,,,2,None,,,,,,,0,65,65,57,632.0287830420002,,,,,,,,,,,,,,,,,,,,,,,,,,,,,,,,,,,,,,,psychopy/greyimage.jpg,,,,,,,,,,,,,,,,632.0227892920011,636.0132740420013,None,,,636.0506507500013,636.0566237090006,640.0205153750012,640.0532793340008,642.0175018340015,642.0038725000013,999,advantageous,0,36,32,,,,test10_Sona,001,2026-01-15_16h29.57.712,SocialRL_SONA,,2025.1.1,119.82918349907406,2026-01-15 16h30.13.082843 -0500,
,66,66,0,,,2,None,,,,,,,0,66,66,40,642.0175018340015,,,,,,,,,,,,,,,,,,,,,,,,,,,,,,,,,,,,,,,psychopy/greyimage.jpg,,,,,,,,,,,,,,,,642.0123783340005,646.0137132090003,None,,,646.0464232089998,646.0524815000008,650.0183387500001,650.0461249170003,652.0214104170009,652.0040980840004,999,advantageous,0,36,33,,,,test10_Sona,001,2026-01-15_16h29.57.712,SocialRL_SONA,,2025.1.1,119.82918349907406,2026-01-15 16h30.13.082843 -0500,
,67,67,0,,,2,m,0.5864377910002077,None,,,,,0,67,67,78,652.0214104170009,,,,,,,,,,,,,,,,,,,,,,,,,,,,,,,,,,,,,,,psychopy/Emotional_Pictures/group2/Neutral2/NeutralTime1.png,,,,,,,,,,,,,,,,652.0155895839998,654.6168427500015,m,0.5864377910002077,None,654.681393334,654.695527834001,658.6126560000012,658.6860920420004,660.6126765000008,660.5978027090005,18,disadvantageous,0,36,34,,,,test10_Sona,001,2026-01-15_16h29.57.712,SocialRL_SONA,,2025.1.1,119.82918349907406,2026-01-15 16h30.13.082843 -0500,
,68,68,0,,,2,m,1.2168961249990389,None,,,,,0,68,68,73,660.6126765000008,,,,,,,,,,,,,,,,,,,,,,,,,,,,,,,,,,,,,,,psychopy/Emotional_Pictures/group2/Positive2/PosTime28.png,,,,,,,,,,,,,,,,660.6071674590003,663.8324707920001,m,1.2168961249990389,None,663.8883154169998,663.896327167,667.829723709001,667.8866896670006,669.826370959001,669.8139368339998,18,disadvantageous,1,36,35,,,,test10_Sona,001,2026-01-15_16h29.57.712,SocialRL_SONA,,2025.1.1,119.82918349907406,2026-01-15 16h30.13.082843 -0500,
,69,69,0,,,1,None,,,,,,,0,69,69,30,669.826370959001,,,,,,,,,,,,,,,,,,,,,,,,,,,,,,,,,,,,,,,psychopy/greyimage.jpg,,,,,,,,,,,,,,,,669.8212623340005,673.8207268340011,None,,,673.854378125001,673.8601199170007,677.8297991250001,677.8530167919998,679.8283510420006,679.8140198340006,999,disadvantageous,0,37,35,,,,test10_Sona,001,2026-01-15_16h29.57.712,SocialRL_SONA,,2025.1.1,119.82918349907406,2026-01-15 16h30.13.082843 -0500,
,70,70,0,,,2,z,0.36963858300077845,None,,,,,0,70,70,47,679.8283510420006,,,,,,,,,,,,,,,,,,,,,,,,,,,,,,,,,,,,,,,psychopy/Emotional_Pictures/group2/Positive2/PosTime24.png,,,,,,,,,,,,,,,,679.8226371670007,682.2062192499998,z,0.36963858300077845,None,682.25686675,682.265613042,686.2057917500006,686.2637113750006,688.2113390000013,688.1976158750003,14,advantageous,1,37,36,,,,test10_Sona,001,2026-01-15_16h29.57.712,SocialRL_SONA,,2025.1.1,119.82918349907406,2026-01-15 16h30.13.082843 -0500,
,71,71,0,,,2,None,,,,,,,0,71,71,56,688.2113390000013,,,,,,,,,,,,,,,,,,,,,,,,,,,,,,,,,,,,,,,psychopy/greyimage.jpg,,,,,,,,,,,,,,,,688.2064157500008,692.1972053340014,None,,,692.232012292001,692.2379390840015,696.2046737090004,696.2365326250001,698.201294292001,698.1883969170012,999,advantageous,0,37,38,,,,test10_Sona,001,2026-01-15_16h29.57.712,SocialRL_SONA,,2025.1.1,119.82918349907406,2026-01-15 16h30.13.082843 -0500,
,72,72,0,,,2,m,0.8133874590002961,None,,,,,0,72,72,71,698.201294292001,,,,,,,,,,,,,,,,,,,,,,,,,,,,,,,,,,,,,,,psychopy/Emotional_Pictures/group2/Negative2/NegativeTime16.png,,,,,,,,,,,,,,,,698.1959718750004,701.0226189590012,m,0.8133874590002961,None,701.0841686250005,701.0926161250009,705.0215932090014,705.0864559590009,707.028782292,707.0150885420007,14,disadvantageous,-1,37,39,,,,test10_Sona,001,2026-01-15_16h29.57.712,SocialRL_SONA,,2025.1.1,119.82918349907406,2026-01-15 16h30.13.082843 -0500,
,73,73,0,,,2,m,0.40139150000140944,None,,,,,0,73,73,58,707.028782292,,,,,,,,,,,,,,,,,,,,,,,,,,,,,,,,,,,,,,,psychopy/Emotional_Pictures/group2/Negative2/NegativeTime20.png,,,,,,,,,,,,,,,,707.023108292,709.4223792500015,m,0.40139150000140944,None,709.4668827920013,709.4752304590002,713.4242172920003,713.4702891670004,715.4289973340001,715.4145365000004,18,advantageous,-1,37,40,,,,test10_Sona,001,2026-01-15_16h29.57.712,SocialRL_SONA,,2025.1.1,119.82918349907406,2026-01-15 16h30.13.082843 -0500,
,74,74,0,,,2,m,0.9871090840006218,None,,,,,0,74,74,60,715.4289973340001,,,,,,,,,,,,,,,,,,,,,,,,,,,,,,,,,,,,,,,psychopy/Emotional_Pictures/group2/Negative2/NegativeTime23.png,,,,,,,,,,,,,,,,715.4231315420002,718.4163521669998,m,0.9871090840006218,None,718.4675875840003,718.4761714590004,722.4136522090012,722.4711271249998,724.4190439590002,724.4083262500008,14,disadvantageous,-1,37,41,,,,test10_Sona,001,2026-01-15_16h29.57.712,SocialRL_SONA,,2025.1.1,119.82918349907406,2026-01-15 16h30.13.082843 -0500,
,75,75,0,,,1,m,0.8789393330007442,None,,,,,0,75,75,32,724.4190439590002,,,,,,,,,,,,,,,,,,,,,,,,,,,,,,,,,,,,,,,psychopy/Emotional_Pictures/group1/Neutral1/C6.png,,,,,,,,,,,,,,,,724.4135773750004,727.299330875001,m,0.8789393330007442,None,727.3145748340012,727.3235123750001,731.2971297920012,731.3199032920002,733.295741625001,733.2818651670004,27,disadvantageous,0,38,41,,,,test10_Sona,001,2026-01-15_16h29.57.712,SocialRL_SONA,,2025.1.1,119.82918349907406,2026-01-15 16h30.13.082843 -0500,
,76,76,0,,,1,None,,,,,,,0,76,76,22,733.295741625001,,,,,,,,,,,,,,,,,,,,,,,,,,,,,,,,,,,,,,,psychopy/greyimage.jpg,,,,,,,,,,,,,,,,733.2901222920009,737.2880246670011,None,,,737.3044868340003,737.3097646250008,741.297133125001,741.3033916250006,743.2974359170003,743.2818817920015,999,disadvantageous,0,39,41,,,,test10_Sona,001,2026-01-15_16h29.57.712,SocialRL_SONA,,2025.1.1,119.82918349907406,2026-01-15 16h30.13.082843 -0500,
,77,77,0,,,2,z,0.34460349999972095,None,,,,,0,77,77,43,743.2974359170003,,,,,,,,,,,,,,,,,,,,,,,,,,,,,,,,,,,,,,,psychopy/Emotional_Pictures/group2/Positive2/PosTime7.png,,,,,,,,,,,,,,,,743.2916128340003,745.6493043340015,z,0.34460349999972095,None,745.7031767500011,745.7117308750003,749.6473369590003,749.7044348750005,751.6461341250015,751.6317677920015,18,advantageous,1,39,42,,,,test10_Sona,001,2026-01-15_16h29.57.712,SocialRL_SONA,,2025.1.1,119.82918349907406,2026-01-15 16h30.13.082843 -0500,
,78,78,0,,,1,z,0.9378744160003407,None,,,,,0,78,78,27,751.6461341250015,,,,,,,,,,,,,,,,,,,,,,,,,,,,,,,,,,,,,,,psychopy/Emotional_Pictures/group1/Positive1/A4.png,,,,,,,,,,,,,,,,751.6404680840005,754.5895761250013,z,0.9378744160003407,None,754.7951561250011,754.8026229590014,758.5892765000008,758.7974438750007,760.5919519590007,760.5816936669999,31,advantageous,1,40,42,,,,test10_Sona,001,2026-01-15_16h29.57.712,SocialRL_SONA,,2025.1.1,119.82918349907406,2026-01-15 16h30.13.082843 -0500,
,79,79,0,,,1,z,1.8755757079998148,None,,,,,0,79,79,29,760.5919519590007,,,,,,,,,,,,,,,,,,,,,,,,,,,,,,,,,,,,,,,psychopy/Emotional_Pictures/group1/Positive1/A10.png,,,,,,,,,,,,,,,,760.5876550840003,764.4788509589998,z,1.8755757079998148,None,764.6544604589999,764.6605994170004,768.4745085840004,768.6544209170006,770.7470993750012,770.4658010420007,27,disadvantageous,1,41,42,,,,test10_Sona,001,2026-01-15_16h29.57.712,SocialRL_SONA,,2025.1.1,119.82918349907406,2026-01-15 16h30.13.082843 -0500,
,,,,,,,,,,,,,,,,,,,,,,,,,,,,,,,,,,,,,,,,,,,,,,,,,,,,,,,,,,,,,,,,,,,,,,,,,,,,,,,,,,,,,,,,,770.4666113750009,770.7470993750012,790.4813311670005,test10_Sona,001,2026-01-15_16h29.57.712,SocialRL_SONA,,2025.1.1,119.82918349907406,2026-01-15 16h30.13.082843 -0500,
